,time,ax,ay,az,Latitude,Longitude,Speed (m/s)
0,0.077349,0.0,0.0,0.0,55.75340875,48.73978323,0.0
1,0.091387,0.0,0.0,0.0,55.75340875,48.73978323,0.0
2,0.12056,0.0,0.0,0.0,55.75340875,48.73978323,0.0
3,0.134126,0.0,0.0,0.0,55.75340875,48.73978323,0.0
4,0.135304,0.0,0.0,0.0,55.75340875,48.73978323,0.0
5,0.144837,0.0,0.0,0.0,55.75340875,48.73978323,0.0
6,0.146057,0.0,0.0,0.0,55.75340875,48.73978323,0.0
7,0.168701,0.0,0.0,0.0,55.75340875,48.73978323,0.0
8,0.170086,0.0,0.0,0.0,55.75340875,48.73978323,0.0
9,0.177473,0.0,0.0,0.0,55.75340875,48.73978323,0.0
10,0.204472,0.0,0.0,0.0,55.75340875,48.73978323,0.0
11,0.205949,0.0,0.0,0.0,55.75340875,48.73978323,0.0
12,0.21271,0.0,0.0,0.0,55.75340875,48.73978323,0.0
13,0.224539,0.0,0.0,0.0,55.75340875,48.73978323,0.0
14,0.225763,0.0,0.0,0.0,55.75340875,48.73978323,0.0
15,0.228946,0.0,0.0,0.0,55.75340875,48.73978323,0.0
16,0.244874,0.0,0.0,0.0,55.75340875,48.73978323,0.0
17,0.265225,0.0,0.0,0.0,55.75340875,48.73978323,0.0
18,0.266749,0.0,0.0,0.0,55.75340875,48.73978323,0.0
19,0.27995,0.0,0.0,0.0,55.75340875,48.73978323,0.0
20,0.281263,0.0,0.0,0.0,55.75340875,48.73978323,0.0
21,0.289179,0.0,0.0,0.0,55.75340875,48.73978323,0.0
22,0.294949,0.0795,-0.0769,0.0266,55.75340875,48.73978323,0.0
23,0.296196,0.0795,-0.0769,0.0266,55.75340875,48.73978323,0.0
24,0.310408,0.0795,-0.0769,0.0266,55.75340875,48.73978323,0.0
25,0.335152,0.0795,-0.0769,0.0266,55.75340875,48.73978323,0.0
26,0.336807,0.0795,-0.0769,0.0266,55.75340875,48.73978323,0.0
27,0.346492,0.0795,-0.0769,0.0266,55.75340875,48.73978323,0.0
28,0.365423,0.0795,-0.0769,0.0266,55.75340875,48.73978323,0.0
29,0.366965,0.0911,-0.0691,-0.0517,55.75340875,48.73978323,0.0
30,0.368161,0.0911,-0.0691,-0.0517,55.75340875,48.73978323,0.0
31,0.369208,0.0911,-0.0691,-0.0517,55.75340875,48.73978323,0.0
32,0.377294,0.0911,-0.0691,-0.0517,55.75340875,48.73978323,0.0
33,0.398395,0.0911,-0.0691,-0.0517,55.75340875,48.73978323,0.0
34,0.399831,0.0911,-0.0691,-0.0517,55.75340875,48.73978323,0.0
35,0.412627,0.0911,-0.0691,-0.0517,55.75340875,48.73978323,0.0
36,0.42561,0.0911,-0.0691,-0.0517,55.75340875,48.73978323,0.0
37,0.426974,0.0911,-0.0691,-0.0517,55.75340875,48.73978323,0.0
38,0.428037,0.1429,-0.1098,-0.0214,55.75340875,48.73978323,0.0
39,0.429042,0.1429,-0.1098,-0.0214,55.75340875,48.73978323,0.0
40,0.4441,0.1429,-0.1098,-0.0214,55.75340875,48.73978323,0.0
41,0.479752,0.1429,-0.1098,-0.0214,55.75340875,48.73978323,0.0
42,0.481532,0.1429,-0.1098,-0.0214,55.75340875,48.73978323,0.0
43,0.482598,0.1429,-0.1098,-0.0214,55.75340875,48.73978323,0.0
44,0.483855,0.1429,-0.1098,-0.0214,55.75340875,48.73978323,0.0
45,0.488464,0.1429,-0.1098,-0.0214,55.75340875,48.73978323,0.0
46,0.495332,0.1429,-0.1098,-0.0214,55.75340875,48.73978323,0.0
47,0.496202,0.1706,-0.1164,0.0476,55.75340875,48.73978323,0.0
48,0.497047,0.1706,-0.1164,0.0476,55.75340875,48.73978323,0.0
49,0.514317,0.1706,-0.1164,0.0476,55.75340875,48.73978323,0.0
50,0.546334,0.1706,-0.1164,0.0476,55.75341119,48.73978717,0.0
51,0.54791,0.1706,-0.1164,0.0476,55.75341119,48.73978717,0.0
52,0.548817,0.1706,-0.1164,0.0476,55.75341119,48.73978717,0.0
53,0.565963,0.1706,-0.1164,0.0476,55.75341119,48.73978717,0.0
54,0.567343,0.5083,0.063,0.0587,55.75341119,48.73978717,0.0
55,0.568417,0.5083,0.063,0.0587,55.75341119,48.73978717,0.0
56,0.569392,0.5083,0.063,0.0587,55.75341119,48.73978717,0.0
57,0.577082,0.5083,0.063,0.0587,55.75341119,48.73978717,0.0
58,0.612123,0.5083,0.063,0.0587,55.75341119,48.73978717,0.0
59,0.614853,0.5083,0.063,0.0587,55.75341119,48.73978717,0.0
60,0.625358,0.5083,0.063,0.0587,55.75341119,48.73978717,0.0
61,0.628635,0.5083,0.063,0.0587,55.75341119,48.73978717,0.0
62,0.629806,0.5083,0.063,0.0587,55.75341119,48.73978717,0.0
63,0.643936,0.5083,0.063,0.0587,55.75341119,48.73978717,0.0
64,0.648797,0.5083,0.063,0.0587,55.75341119,48.73978717,0.0
65,0.649766,0.5083,0.063,0.0587,55.75341119,48.73978717,0.0
66,0.65057,0.3537,-0.3356,0.5008,55.75341119,48.73978717,0.0
67,0.67932,0.3537,-0.3356,0.5008,55.75341119,48.73978717,0.0
68,0.680611,0.3537,-0.3356,0.5008,55.75341119,48.73978717,0.0
69,0.688708,0.3537,-0.3356,0.5008,55.75341119,48.73978717,0.0
70,0.695845,0.3537,-0.3356,0.5008,55.75341119,48.73978717,0.0
71,0.696966,0.3537,-0.3356,0.5008,55.75341119,48.73978717,0.0
72,0.710446,0.3537,-0.3356,0.5008,55.75341119,48.73978717,0.0
73,0.716662,0.4464,-0.8979,1.0121,55.75341119,48.73978717,0.0
74,0.717852,0.4464,-0.8979,1.0121,55.75341119,48.73978717,0.0
75,0.718798,0.4464,-0.8979,1.0121,55.75341119,48.73978717,0.0
76,0.746408,0.4464,-0.8979,1.0121,55.75341119,48.73978717,0.0
77,0.766386,0.4464,-0.8979,1.0121,55.75341119,48.73978717,0.0
78,0.768678,0.4464,-0.8979,1.0121,55.75341119,48.73978717,0.0
79,0.769856,0.4464,-0.8979,1.0121,55.75341119,48.73978717,0.0
80,0.777051,0.4464,-0.8979,1.0121,55.75341119,48.73978717,0.0
81,0.78705,0.4464,-0.8979,1.0121,55.75341119,48.73978717,0.0
82,0.78848,-0.0673,-0.3517,0.7607,55.75341119,48.73978717,0.0
83,0.789591,-0.0673,-0.3517,0.7607,55.75341119,48.73978717,0.0
84,0.812279,-0.0673,-0.3517,0.7607,55.75341119,48.73978717,0.0
85,0.828535,-0.0673,-0.3517,0.7607,55.75341119,48.73978717,0.0
86,0.829801,-0.0673,-0.3517,0.7607,55.75341119,48.73978717,0.0
87,0.8309,-0.0673,-0.3517,0.7607,55.75341119,48.73978717,0.0
88,0.844246,-0.0673,-0.3517,0.7607,55.75341119,48.73978717,0.0
89,0.847257,-0.0673,-0.3517,0.7607,55.75341119,48.73978717,0.0
90,0.848555,-0.0673,-0.3517,0.7607,55.75341119,48.73978717,0.0
91,0.849434,0.9392,0.3048,0.0144,55.75341119,48.73978717,0.0
92,0.880302,0.9392,0.3048,0.0144,55.75341119,48.73978717,0.0
93,0.881578,0.9392,0.3048,0.0144,55.75341119,48.73978717,0.0
94,0.88873,0.9392,0.3048,0.0144,55.75341119,48.73978717,0.0
95,0.898793,0.9392,0.3048,0.0144,55.75341119,48.73978717,0.0
96,0.900305,0.9392,0.3048,0.0144,55.75341119,48.73978717,0.0
97,0.910387,0.9392,0.3048,0.0144,55.75341119,48.73978717,0.0
98,0.917825,0.3393,-0.4496,-0.0814,55.75341119,48.73978717,0.0
99,0.921344,0.3393,-0.4496,-0.0814,55.75341119,48.73978717,0.0
100,0.923282,0.3393,-0.4496,-0.0814,55.75341119,48.73978717,0.0
101,0.945847,0.3393,-0.4496,-0.0814,55.75341119,48.73978717,0.0
102,0.970397,0.3393,-0.4496,-0.0814,55.75341119,48.73978717,0.0
103,0.977678,0.3393,-0.4496,-0.0814,55.75341119,48.73978717,0.0
104,0.983476,0.3393,-0.4496,-0.0814,55.75341119,48.73978717,0.0
105,0.987876,0.3393,-0.4496,-0.0814,55.75341119,48.73978717,0.0
106,0.99817,0.6372,-1.6052,-0.3943,55.75341119,48.73978717,0.0
107,1.002458,0.6372,-1.6052,-0.3943,55.75341119,48.73978717,0.0
108,1.005114,0.6372,-1.6052,-0.3943,55.75341119,48.73978717,0.0
109,1.00729,0.6372,-1.6052,-0.3943,55.75341119,48.73978717,0.0
110,1.029671,0.6372,-1.6052,-0.3943,55.75341119,48.73978717,0.0
111,1.035143,0.6372,-1.6052,-0.3943,55.75341119,48.73978717,0.0
112,1.051097,0.6372,-1.6052,-0.3943,55.75341119,48.73978717,0.0
113,1.054783,0.6372,-1.6052,-0.3943,55.75341119,48.73978717,0.0
114,1.058037,0.6372,-1.6052,-0.3943,55.75341119,48.73978717,0.0
115,1.069575,0.6044,-1.3356,0.04,55.75341119,48.73978717,0.0
116,1.073015,0.6044,-1.3356,0.04,55.75341119,48.73978717,0.0
117,1.07513,0.6044,-1.3356,0.04,55.75341119,48.73978717,0.0
118,1.08249,0.6044,-1.3356,0.04,55.75341119,48.73978717,0.0
119,1.089226,0.6044,-1.3356,0.04,55.75341119,48.73978717,0.0
120,1.101865,0.6044,-1.3356,0.04,55.75341119,48.73978717,0.0
121,1.110665,0.6044,-1.3356,0.04,55.75341119,48.73978717,0.0
122,1.118726,0.6044,-1.3356,0.04,55.75341119,48.73978717,0.0
123,1.1398,-0.859,-0.5599,0.4441,55.75341119,48.73978717,0.0
124,1.142862,-0.859,-0.5599,0.4441,55.75341119,48.73978717,0.0
125,1.145294,-0.859,-0.5599,0.4441,55.75341119,48.73978717,0.0
126,1.147469,-0.859,-0.5599,0.4441,55.75341119,48.73978717,0.0
127,1.170087,-0.859,-0.5599,0.4441,55.75341119,48.73978717,0.0
128,1.173119,-0.859,-0.5599,0.4441,55.75341119,48.73978717,0.0
129,1.177441,-0.859,-0.5599,0.4441,55.75341119,48.73978717,0.0
130,1.191537,-0.859,-0.5599,0.4441,55.75341119,48.73978717,0.0
131,1.213641,-0.859,-0.5599,0.4441,55.75341119,48.73978717,0.0
132,1.217532,-0.859,-0.5599,0.4441,55.75341119,48.73978717,0.0
133,1.220472,-0.4441,0.6533,-0.7062,55.75341119,48.73978717,0.0
134,1.223118,-0.4441,0.6533,-0.7062,55.75341119,48.73978717,0.0
135,1.229757,-0.4441,0.6533,-0.7062,55.75341119,48.73978717,0.0
136,1.232833,-0.4441,0.6533,-0.7062,55.75341119,48.73978717,0.0
137,1.244601,-0.4441,0.6533,-0.7062,55.75341119,48.73978717,0.0
138,1.248924,-0.4441,0.6533,-0.7062,55.75341119,48.73978717,0.0
139,1.26979,-0.4441,0.6533,-0.7062,55.75341119,48.73978717,0.0
140,1.273271,-0.4441,0.6533,-0.7062,55.75341119,48.73978717,0.0
141,1.275772,-0.9633,0.1928,-0.2528,55.75341119,48.73978717,0.0
142,1.278196,-0.9633,0.1928,-0.2528,55.75341119,48.73978717,0.0
143,1.280635,-0.9633,0.1928,-0.2528,55.75341119,48.73978717,0.0
144,1.289822,-0.9633,0.1928,-0.2528,55.75341119,48.73978717,0.0
145,1.300495,-0.9633,0.1928,-0.2528,55.75341119,48.73978717,0.0
146,1.310745,-0.9633,0.1928,-0.2528,55.75341119,48.73978717,0.0
147,1.324211,-0.9633,0.1928,-0.2528,55.75341119,48.73978717,0.0
148,1.340471,-1.3645,-0.0518,0.191,55.75341119,48.73978717,0.0
149,1.345985,-1.3645,-0.0518,0.191,55.75341119,48.73978717,0.0
150,1.349108,-1.3645,-0.0518,0.191,55.75341119,48.73978717,0.0
151,1.351389,-1.3645,-0.0518,0.191,55.75341119,48.73978717,0.0
152,1.36916,-1.3645,-0.0518,0.191,55.75341119,48.73978717,0.0
153,1.372089,-1.3645,-0.0518,0.191,55.75341119,48.73978717,0.0
154,1.377641,-1.3645,-0.0518,0.191,55.75341119,48.73978717,0.0
155,1.398687,-1.3645,-0.0518,0.191,55.75341119,48.73978717,0.0
156,1.401568,-1.3645,-0.0518,0.191,55.75341119,48.73978717,0.0
157,1.41211,-1.3645,-0.0518,0.191,55.75341119,48.73978717,0.0
158,1.416425,-1.349,-0.0339,-0.2011,55.75341119,48.73978717,0.0
159,1.419103,-1.349,-0.0339,-0.2011,55.75341119,48.73978717,0.0
160,1.434395,-1.349,-0.0339,-0.2011,55.75341119,48.73978717,0.0
161,1.444674,-1.349,-0.0339,-0.2011,55.75341119,48.73978717,0.0
162,1.447259,-1.349,-0.0339,-0.2011,55.75341119,48.73978717,0.0
163,1.470381,-1.349,-0.0339,-0.2011,55.75341119,48.73978717,0.0
164,1.475722,-1.349,-0.0339,-0.2011,55.75341119,48.73978717,0.0
165,1.484751,-1.349,-0.0339,-0.2011,55.75341119,48.73978717,0.0
166,1.4879,-1.349,-0.0339,-0.2011,55.75341119,48.73978717,0.0
167,1.490126,-1.1128,0.8803,0.0643,55.75341119,48.73978717,0.0
168,1.492484,-1.1128,0.8803,0.0643,55.75341119,48.73978717,0.0
169,1.494708,-1.1128,0.8803,0.0643,55.75341119,48.73978717,0.0
170,1.500166,-1.1128,0.8803,0.0643,55.75341119,48.73978717,0.0
171,1.510558,-1.1128,0.8803,0.0643,55.75341119,48.73978717,0.0
172,1.540243,-1.1128,0.8803,0.0643,55.75341119,48.73978717,0.0
173,1.542794,-1.1128,0.8803,0.0643,55.75341119,48.73978717,0.0
174,1.548224,-1.1128,0.8803,0.0643,55.75341119,48.73978717,0.0
175,1.568687,-1.1128,0.8803,0.0643,55.75341119,48.73978717,0.0
176,1.571781,-1.19,0.5938,0.089,55.75341119,48.73978717,0.0
177,1.574029,-1.19,0.5938,0.089,55.75341119,48.73978717,0.0
178,1.576396,-1.19,0.5938,0.089,55.75341119,48.73978717,0.0
179,1.578259,-1.19,0.5938,0.089,55.75341119,48.73978717,0.0
180,1.600169,-1.19,0.5938,0.089,55.75341119,48.73978717,0.0
181,1.603941,-1.19,0.5938,0.089,55.75341119,48.73978717,0.0
182,1.613474,-1.19,0.5938,0.089,55.75341119,48.73978717,0.0
183,1.629888,-1.19,0.5938,0.089,55.75341119,48.73978717,0.0
184,1.635183,-1.19,0.5938,0.089,55.75341119,48.73978717,0.0
185,1.638195,-1.3703,0.8079,-0.2187,55.75341119,48.73978717,0.0
186,1.64139,-1.3703,0.8079,-0.2187,55.75341119,48.73978717,0.0
187,1.649602,-1.3703,0.8079,-0.2187,55.75341119,48.73978717,0.0
188,1.65621,-1.3703,0.8079,-0.2187,55.75341119,48.73978717,0.0
189,1.682582,-1.3703,0.8079,-0.2187,55.75341119,48.73978717,0.0
190,1.687298,-1.3703,0.8079,-0.2187,55.75341119,48.73978717,0.0
191,1.689812,-1.3703,0.8079,-0.2187,55.75341119,48.73978717,0.0
192,1.692914,-1.3703,0.8079,-0.2187,55.75341119,48.73978717,0.0
193,1.695988,-1.0579,0.4422,-0.2012,55.75341119,48.73978717,0.0
194,1.699351,-1.0579,0.4422,-0.2012,55.75341119,48.73978717,0.0
195,1.711081,-1.0579,0.4422,-0.2012,55.75341119,48.73978717,0.0
196,1.74633,-1.0579,0.4422,-0.2012,55.75341119,48.73978717,0.0
197,1.749075,-1.0579,0.4422,-0.2012,55.75341119,48.73978717,0.0
198,1.751125,-1.0579,0.4422,-0.2012,55.75341119,48.73978717,0.0
199,1.753694,-1.0579,0.4422,-0.2012,55.75341119,48.73978717,0.0
200,1.761915,-1.0579,0.4422,-0.2012,55.75341119,48.73978717,0.0
201,1.76409,-1.0579,0.4422,-0.2012,55.75341119,48.73978717,0.0
202,1.765389,-0.9224,0.7168,-0.9614,55.75341119,48.73978717,0.0
203,1.768998,-0.9224,0.7168,-0.9614,55.75341119,48.73978717,0.0
204,1.777113,-0.9224,0.7168,-0.9614,55.75341119,48.73978717,0.0
205,1.81293,-0.9224,0.7168,-0.9614,55.75341119,48.73978717,0.0
206,1.816761,-0.9224,0.7168,-0.9614,55.75341119,48.73978717,0.0
207,1.819745,-0.9224,0.7168,-0.9614,55.75341119,48.73978717,0.0
208,1.829571,-0.9224,0.7168,-0.9614,55.75341119,48.73978717,0.0
209,1.833534,-0.9224,0.7168,-0.9614,55.75341119,48.73978717,0.0
210,1.83663,-0.833,0.6032,-0.3541,55.75341119,48.73978717,0.0
211,1.839114,-0.833,0.6032,-0.3541,55.75341119,48.73978717,0.0
212,1.845542,-0.833,0.6032,-0.3541,55.75341119,48.73978717,0.0
213,1.87955,-0.833,0.6032,-0.3541,55.75341119,48.73978717,0.0
214,1.882442,-0.833,0.6032,-0.3541,55.75341119,48.73978717,0.0
215,1.888761,-0.833,0.6032,-0.3541,55.75341119,48.73978717,0.0
216,1.891238,-0.833,0.6032,-0.3541,55.75341119,48.73978717,0.0
217,1.899277,-0.833,0.6032,-0.3541,55.75341119,48.73978717,0.0
218,1.912685,-0.833,0.6032,-0.3541,55.75341119,48.73978717,0.0
219,1.916206,-0.833,0.6032,-0.3541,55.75341119,48.73978717,0.0
220,1.918661,-0.833,0.6032,-0.3541,55.75341119,48.73978717,0.0
221,1.920556,-0.1913,0.531,-0.0102,55.75341119,48.73978717,0.0
222,1.946631,-0.1913,0.531,-0.0102,55.75341119,48.73978717,0.0
223,1.951128,-0.1913,0.531,-0.0102,55.75341119,48.73978717,0.0
224,1.962179,-0.1913,0.531,-0.0102,55.75341119,48.73978717,0.0
225,1.969522,-0.1913,0.531,-0.0102,55.75341119,48.73978717,0.0
226,1.973588,-0.1913,0.531,-0.0102,55.75341119,48.73978717,0.0
227,1.977264,-0.1913,0.531,-0.0102,55.75341119,48.73978717,0.0
228,1.9823,-0.1913,0.531,-0.0102,55.75341119,48.73978717,0.0
229,1.984782,-0.1913,0.531,-0.0102,55.75341119,48.73978717,0.0
230,1.987194,-0.1099,0.5459,0.6219,55.75341119,48.73978717,0.0
231,2.013159,-0.1099,0.5459,0.6219,55.75341119,48.73978717,0.0
232,2.029695,-0.1099,0.5459,0.6219,55.75341119,48.73978717,0.0
233,2.034705,-0.1099,0.5459,0.6219,55.75341119,48.73978717,0.0
234,2.044505,-0.1099,0.5459,0.6219,55.75341119,48.73978717,0.0
235,2.047874,-0.1099,0.5459,0.6219,55.75341119,48.73978717,0.0
236,2.057066,-0.5506,0.5937,0.4429,55.75341119,48.73978717,0.0
237,2.059791,-0.5506,0.5937,0.4429,55.75341119,48.73978717,0.0
238,2.061665,-0.5506,0.5937,0.4429,55.75341119,48.73978717,0.0
239,2.079465,-0.5506,0.5937,0.4429,55.75341119,48.73978717,0.0
240,2.089269,-0.5506,0.5937,0.4429,55.75341119,48.73978717,0.0
241,2.09257,-0.5506,0.5937,0.4429,55.75341119,48.73978717,0.0
242,2.111935,-0.5506,0.5937,0.4429,55.75341119,48.73978717,0.0
243,2.114782,-0.5506,0.5937,0.4429,55.75341119,48.73978717,0.0
244,2.116587,-0.5506,0.5937,0.4429,55.75341119,48.73978717,0.0
245,2.118815,-0.2475,-0.0344,1.6366,55.75341119,48.73978717,0.0
246,2.12135,-0.2475,-0.0344,1.6366,55.75341119,48.73978717,0.0
247,2.150625,-0.2475,-0.0344,1.6366,55.75341119,48.73978717,0.0
248,2.154711,-0.2475,-0.0344,1.6366,55.75341119,48.73978717,0.0
249,2.162931,-0.2475,-0.0344,1.6366,55.75341119,48.73978717,0.0
250,2.171494,-0.2475,-0.0344,1.6366,55.75341119,48.73978717,0.0
251,2.176057,-0.2475,-0.0344,1.6366,55.75341119,48.73978717,0.0
252,2.178825,-0.2475,-0.0344,1.6366,55.75341119,48.73978717,0.0
253,2.183814,-0.2475,-0.0344,1.6366,55.75341119,48.73978717,0.0
254,2.186465,0.2424,-0.6341,0.3862,55.75341119,48.73978717,0.0
255,2.189445,0.2424,-0.6341,0.3862,55.75341119,48.73978717,0.0
256,2.214194,0.2424,-0.6341,0.3862,55.75341119,48.73978717,0.0
257,2.235243,0.2424,-0.6341,0.3862,55.75341119,48.73978717,0.0
258,2.240987,0.2424,-0.6341,0.3862,55.75341119,48.73978717,0.0
259,2.244686,0.2424,-0.6341,0.3862,55.75341119,48.73978717,0.0
260,2.247706,0.2424,-0.6341,0.3862,55.75341119,48.73978717,0.0
261,2.257666,0.2424,-0.6341,0.3862,55.75341119,48.73978717,0.0
262,2.261669,-0.2251,-0.8205,-0.8276,55.75341119,48.73978717,0.0
263,2.264665,-0.2251,-0.8205,-0.8276,55.75341119,48.73978717,0.0
264,2.27942,-0.2251,-0.8205,-0.8276,55.75341119,48.73978717,0.0
265,2.289865,-0.2251,-0.8205,-0.8276,55.75341119,48.73978717,0.0
266,2.312172,-0.2251,-0.8205,-0.8276,55.75341119,48.73978717,0.0
267,2.314271,-0.2251,-0.8205,-0.8276,55.75341119,48.73978717,0.0
268,2.315701,-0.2251,-0.8205,-0.8276,55.75341119,48.73978717,0.0
269,2.335086,-0.3255,-0.2401,-0.7474,55.75341119,48.73978717,0.0
270,2.338202,-0.3255,-0.2401,-0.7474,55.75341119,48.73978717,0.0
271,2.340508,-0.3255,-0.2401,-0.7474,55.75341119,48.73978717,0.0
272,2.342581,-0.3255,-0.2401,-0.7474,55.75341119,48.73978717,0.0
273,2.348476,-0.3255,-0.2401,-0.7474,55.75341119,48.73978717,0.0
274,2.369611,-0.3255,-0.2401,-0.7474,55.75341119,48.73978717,0.0
275,2.372758,-0.3255,-0.2401,-0.7474,55.75341119,48.73978717,0.0
276,2.37823,-0.3255,-0.2401,-0.7474,55.75341119,48.73978717,0.0
277,2.384547,-0.3255,-0.2401,-0.7474,55.75341119,48.73978717,0.0
278,2.399183,-0.3255,-0.2401,-0.7474,55.75341119,48.73978717,0.0
279,2.402274,0.0926,-0.3085,-1.0829,55.75341119,48.73978717,0.0
280,2.404734,0.0926,-0.3085,-1.0829,55.75341119,48.73978717,0.0
281,2.415271,0.0926,-0.3085,-1.0829,55.75341119,48.73978717,0.0
282,2.433802,0.0926,-0.3085,-1.0829,55.75341119,48.73978717,0.0
283,2.437295,0.0926,-0.3085,-1.0829,55.75341119,48.73978717,0.0
284,2.443784,0.0926,-0.3085,-1.0829,55.75341119,48.73978717,0.0
285,2.446757,0.0926,-0.3085,-1.0829,55.75341119,48.73978717,0.0
286,2.465346,-0.5708,0.1126,-0.5846,55.75341119,48.73978717,0.0
287,2.470893,-0.5708,0.1126,-0.5846,55.75341119,48.73978717,0.0
288,2.475478,-0.5708,0.1126,-0.5846,55.75341119,48.73978717,0.0
289,2.483514,-0.5708,0.1126,-0.5846,55.75341119,48.73978717,0.0
290,2.491663,-0.5708,0.1126,-0.5846,55.75341119,48.73978717,0.0
291,2.510857,-0.5708,0.1126,-0.5846,55.75341119,48.73978717,0.0
292,2.515362,-0.5708,0.1126,-0.5846,55.75341119,48.73978717,0.0
293,2.518102,-0.5708,0.1126,-0.5846,55.75341119,48.73978717,0.0
294,2.534162,-0.1264,0.2281,0.115,55.75341119,48.73978717,0.0
295,2.536948,-0.1264,0.2281,0.115,55.75341119,48.73978717,0.0
296,2.539055,-0.1264,0.2281,0.115,55.75341119,48.73978717,0.0
297,2.541216,-0.1264,0.2281,0.115,55.75341119,48.73978717,0.0
298,2.546934,-0.1264,0.2281,0.115,55.75341119,48.73978717,0.0
299,2.573294,-0.1264,0.2281,0.115,55.75341119,48.73978717,0.0
300,2.576153,-0.1264,0.2281,0.115,55.75341961,48.73983677,0.76999998
301,2.578499,-0.1264,0.2281,0.115,55.75341961,48.73983677,0.76999998
302,2.584823,-0.1264,0.2281,0.115,55.75341961,48.73983677,0.76999998
303,2.605999,-1.0168,0.4259,0.4689,55.75341961,48.73983677,0.76999998
304,2.608912,-1.0168,0.4259,0.4689,55.75341961,48.73983677,0.76999998
305,2.61115,-1.0168,0.4259,0.4689,55.75341961,48.73983677,0.76999998
306,2.613291,-1.0168,0.4259,0.4689,55.75341961,48.73983677,0.76999998
307,2.630007,-1.0168,0.4259,0.4689,55.75341961,48.73983677,0.76999998
308,2.634403,-1.0168,0.4259,0.4689,55.75341961,48.73983677,0.76999998
309,2.646178,-1.0168,0.4259,0.4689,55.75341961,48.73983677,0.76999998
310,2.652744,-1.0168,0.4259,0.4689,55.75341961,48.73983677,0.76999998
311,2.664744,-1.0168,0.4259,0.4689,55.75341961,48.73983677,0.76999998
312,2.680178,-1.0168,0.4259,0.4689,55.75341961,48.73983677,0.76999998
313,2.683831,-0.89,0.5485,2.4079,55.75341961,48.73983677,0.76999998
314,2.686031,-0.89,0.5485,2.4079,55.75341961,48.73983677,0.76999998
315,2.688914,-0.89,0.5485,2.4079,55.75341961,48.73983677,0.76999998
316,2.710789,-0.89,0.5485,2.4079,55.75341961,48.73983677,0.76999998
317,2.714826,-0.89,0.5485,2.4079,55.75341961,48.73983677,0.76999998
318,2.734783,-0.89,0.5485,2.4079,55.75341961,48.73983677,0.76999998
319,2.738391,-0.89,0.5485,2.4079,55.75341961,48.73983677,0.76999998
320,2.747472,-1.5841,-0.5662,0.9672,55.75341961,48.73983677,0.76999998
321,2.751029,-1.5841,-0.5662,0.9672,55.75341961,48.73983677,0.76999998
322,2.753271,-1.5841,-0.5662,0.9672,55.75341961,48.73983677,0.76999998
323,2.755262,-1.5841,-0.5662,0.9672,55.75341961,48.73983677,0.76999998
324,2.768862,-1.5841,-0.5662,0.9672,55.75341961,48.73983677,0.76999998
325,2.771939,-1.5841,-0.5662,0.9672,55.75341961,48.73983677,0.76999998
326,2.777218,-1.5841,-0.5662,0.9672,55.75341961,48.73983677,0.76999998
327,2.805868,-1.5841,-0.5662,0.9672,55.75341961,48.73983677,0.76999998
328,2.810824,-1.5841,-0.5662,0.9672,55.75341961,48.73983677,0.76999998
329,2.814922,-1.5841,-0.5662,0.9672,55.75341961,48.73983677,0.76999998
330,2.825898,-1.5841,-0.5662,0.9672,55.75341961,48.73983677,0.76999998
331,2.830663,-0.8845,-1.1091,-0.4603,55.75341961,48.73983677,0.76999998
332,2.833811,-0.8845,-1.1091,-0.4603,55.75341961,48.73983677,0.76999998
333,2.836611,-0.8845,-1.1091,-0.4603,55.75341961,48.73983677,0.76999998
334,2.844992,-0.8845,-1.1091,-0.4603,55.75341961,48.73983677,0.76999998
335,2.86587,-0.8845,-1.1091,-0.4603,55.75341961,48.73983677,0.76999998
336,2.8698,-0.8845,-1.1091,-0.4603,55.75341961,48.73983677,0.76999998
337,2.872677,-0.8845,-1.1091,-0.4603,55.75341961,48.73983677,0.76999998
338,2.889531,-0.8845,-1.1091,-0.4603,55.75341961,48.73983677,0.76999998
339,2.897216,-0.8845,-1.1091,-0.4603,55.75341961,48.73983677,0.76999998
340,2.900424,-0.6353,-0.9545,-1.6186,55.75341961,48.73983677,0.76999998
341,2.902888,-0.6353,-0.9545,-1.6186,55.75341961,48.73983677,0.76999998
342,2.911946,-0.6353,-0.9545,-1.6186,55.75341961,48.73983677,0.76999998
343,2.93611,-0.6353,-0.9545,-1.6186,55.75341961,48.73983677,0.76999998
344,2.938998,-0.6353,-0.9545,-1.6186,55.75341961,48.73983677,0.76999998
345,2.941248,-0.6353,-0.9545,-1.6186,55.75341961,48.73983677,0.76999998
346,2.947097,-0.6353,-0.9545,-1.6186,55.75341961,48.73983677,0.76999998
347,2.96747,-0.6353,-0.9545,-1.6186,55.75341961,48.73983677,0.76999998
348,2.972377,-0.6993,-0.5202,-1.3915,55.75341961,48.73983677,0.76999998
349,2.976566,-0.6993,-0.5202,-1.3915,55.75341961,48.73983677,0.76999998
350,2.979,-0.6993,-0.5202,-1.3915,55.75341961,48.73983677,0.76999998
351,2.981418,-0.6993,-0.5202,-1.3915,55.75341961,48.73983677,0.76999998
352,3.007062,-0.6993,-0.5202,-1.3915,55.75341961,48.73983677,0.76999998
353,3.012904,-0.6993,-0.5202,-1.3915,55.75341961,48.73983677,0.76999998
354,3.016819,-0.6993,-0.5202,-1.3915,55.75341961,48.73983677,0.76999998
355,3.027103,-0.6993,-0.5202,-1.3915,55.75341961,48.73983677,0.76999998
356,3.032883,-0.6083,-0.362,-0.4468,55.75341961,48.73983677,0.76999998
357,3.036457,-0.6083,-0.362,-0.4468,55.75341961,48.73983677,0.76999998
358,3.039324,-0.6083,-0.362,-0.4468,55.75341961,48.73983677,0.76999998
359,3.045256,-0.6083,-0.362,-0.4468,55.75341961,48.73983677,0.76999998
360,3.05602,-0.6083,-0.362,-0.4468,55.75341961,48.73983677,0.76999998
361,3.08096,-0.6083,-0.362,-0.4468,55.75341961,48.73983677,0.76999998
362,3.086211,-0.6083,-0.362,-0.4468,55.75341961,48.73983677,0.76999998
363,3.089987,-0.6083,-0.362,-0.4468,55.75341961,48.73983677,0.76999998
364,3.100571,-0.6083,-0.362,-0.4468,55.75341961,48.73983677,0.76999998
365,3.103559,0.0464,-0.4901,0.8391,55.75341961,48.73983677,0.76999998
366,3.105905,0.0464,-0.4901,0.8391,55.75341961,48.73983677,0.76999998
367,3.110699,0.0464,-0.4901,0.8391,55.75341961,48.73983677,0.76999998
368,3.15036,0.0464,-0.4901,0.8391,55.75341961,48.73983677,0.76999998
369,3.153136,0.0464,-0.4901,0.8391,55.75341961,48.73983677,0.76999998
370,3.155271,0.0464,-0.4901,0.8391,55.75341961,48.73983677,0.76999998
371,3.157461,0.0464,-0.4901,0.8391,55.75341961,48.73983677,0.76999998
372,3.167184,0.0464,-0.4901,0.8391,55.75341961,48.73983677,0.76999998
373,3.170048,-0.1529,0.3826,1.2113,55.75341961,48.73983677,0.76999998
374,3.172268,-0.1529,0.3826,1.2113,55.75341961,48.73983677,0.76999998
375,3.174262,-0.1529,0.3826,1.2113,55.75341961,48.73983677,0.76999998
376,3.177844,-0.1529,0.3826,1.2113,55.75341961,48.73983677,0.76999998
377,3.214404,-0.1529,0.3826,1.2113,55.75341961,48.73983677,0.76999998
378,3.217552,-0.1529,0.3826,1.2113,55.75341961,48.73983677,0.76999998
379,3.226947,-0.1529,0.3826,1.2113,55.75341961,48.73983677,0.76999998
380,3.230597,-0.1529,0.3826,1.2113,55.75341961,48.73983677,0.76999998
381,3.234048,-0.1529,0.3826,1.2113,55.75341961,48.73983677,0.76999998
382,3.244806,-0.1529,0.3826,1.2113,55.75341961,48.73983677,0.76999998
383,3.247733,-0.1529,0.3826,1.2113,55.75341961,48.73983677,0.76999998
384,3.250092,-0.1529,0.3826,1.2113,55.75341961,48.73983677,0.76999998
385,3.252452,0.6186,-0.2802,3.561,55.75341961,48.73983677,0.76999998
386,3.280741,0.6186,-0.2802,3.561,55.75341961,48.73983677,0.76999998
387,3.289323,0.6186,-0.2802,3.561,55.75341961,48.73983677,0.76999998
388,3.300109,0.6186,-0.2802,3.561,55.75341961,48.73983677,0.76999998
389,3.304051,0.6186,-0.2802,3.561,55.75341961,48.73983677,0.76999998
390,3.311389,0.6186,-0.2802,3.561,55.75341961,48.73983677,0.76999998
391,3.318125,0.6186,-0.2802,3.561,55.75341961,48.73983677,0.76999998
392,3.322132,0.6186,-0.2802,3.561,55.75341961,48.73983677,0.76999998
393,3.32499,1.7085,-1.3029,0.2893,55.75341961,48.73983677,0.76999998
394,3.346289,1.7085,-1.3029,0.2893,55.75341961,48.73983677,0.76999998
395,3.357538,1.7085,-1.3029,0.2893,55.75341961,48.73983677,0.76999998
396,3.360073,1.7085,-1.3029,0.2893,55.75341961,48.73983677,0.76999998
397,3.369405,1.7085,-1.3029,0.2893,55.75341961,48.73983677,0.76999998
398,3.378638,1.7085,-1.3029,0.2893,55.75341961,48.73983677,0.76999998
399,3.382451,1.7085,-1.3029,0.2893,55.75341961,48.73983677,0.76999998
400,3.384623,1.1177,-1.0124,-0.865,55.75341961,48.73983677,0.76999998
401,3.387267,1.1177,-1.0124,-0.865,55.75341961,48.73983677,0.76999998
402,3.401421,1.1177,-1.0124,-0.865,55.75341961,48.73983677,0.76999998
403,3.41322,1.1177,-1.0124,-0.865,55.75341961,48.73983677,0.76999998
404,3.428521,1.1177,-1.0124,-0.865,55.75341961,48.73983677,0.76999998
405,3.432599,1.1177,-1.0124,-0.865,55.75341961,48.73983677,0.76999998
406,3.43578,1.1177,-1.0124,-0.865,55.75341961,48.73983677,0.76999998
407,3.449882,1.1177,-1.0124,-0.865,55.75341961,48.73983677,0.76999998
408,3.451645,1.1177,-1.0124,-0.865,55.75341961,48.73983677,0.76999998
409,3.453286,0.5821,-0.9158,-2.3371,55.75341961,48.73983677,0.76999998
410,3.454696,0.5821,-0.9158,-2.3371,55.75341961,48.73983677,0.76999998
411,3.480951,0.5821,-0.9158,-2.3371,55.75341961,48.73983677,0.76999998
412,3.490265,0.5821,-0.9158,-2.3371,55.75341961,48.73983677,0.76999998
413,3.500798,0.5821,-0.9158,-2.3371,55.75341961,48.73983677,0.76999998
414,3.504189,0.5821,-0.9158,-2.3371,55.75341961,48.73983677,0.76999998
415,3.5117,0.5821,-0.9158,-2.3371,55.75341961,48.73983677,0.76999998
416,3.519336,0.5821,-0.9158,-2.3371,55.75341961,48.73983677,0.76999998
417,3.521879,0.5821,-0.9158,-2.3371,55.75341961,48.73983677,0.76999998
418,3.524244,1.1532,-0.7481,-1.2336,55.75341961,48.73983677,0.76999998
419,3.546686,1.1532,-0.7481,-1.2336,55.75341961,48.73983677,0.76999998
420,3.576664,1.1532,-0.7481,-1.2336,55.75341961,48.73983677,0.76999998
421,3.580851,1.1532,-0.7481,-1.2336,55.75341961,48.73983677,0.76999998
422,3.583294,1.1532,-0.7481,-1.2336,55.75341961,48.73983677,0.76999998
423,3.585887,1.1532,-0.7481,-1.2336,55.75341961,48.73983677,0.76999998
424,3.607037,1.1532,-0.7481,-1.2336,55.75341961,48.73983677,0.76999998
425,3.610193,1.1532,-0.7481,-1.2336,55.75340531,48.73986931,1.30999994
426,3.612733,0.0586,0.1844,-0.6533,55.75340531,48.73986931,1.30999994
427,3.614864,0.0586,0.1844,-0.6533,55.75340531,48.73986931,1.30999994
428,3.617162,0.0586,0.1844,-0.6533,55.75340531,48.73986931,1.30999994
429,3.62941,0.0586,0.1844,-0.6533,55.75340531,48.73986931,1.30999994
430,3.6336,0.0586,0.1844,-0.6533,55.75340531,48.73986931,1.30999994
431,3.644768,0.0586,0.1844,-0.6533,55.75340531,48.73986931,1.30999994
432,3.650884,0.0586,0.1844,-0.6533,55.75340531,48.73986931,1.30999994
433,3.657671,0.0586,0.1844,-0.6533,55.75340531,48.73986931,1.30999994
434,3.670673,0.0586,0.1844,-0.6533,55.75340531,48.73986931,1.30999994
435,3.676851,0.0586,0.1844,-0.6533,55.75340531,48.73986931,1.30999994
436,3.680367,-0.6811,1.1402,-0.1172,55.75340531,48.73986931,1.30999994
437,3.689262,-0.6811,1.1402,-0.1172,55.75340531,48.73986931,1.30999994
438,3.702352,-0.6811,1.1402,-0.1172,55.75340531,48.73986931,1.30999994
439,3.710663,-0.6811,1.1402,-0.1172,55.75340531,48.73986931,1.30999994
440,3.718501,-0.6811,1.1402,-0.1172,55.75340531,48.73986931,1.30999994
441,3.739503,-0.5911,1.0845,2.6073,55.75340531,48.73986931,1.30999994
442,3.743131,-0.5911,1.0845,2.6073,55.75340531,48.73986931,1.30999994
443,3.745672,-0.5911,1.0845,2.6073,55.75340531,48.73986931,1.30999994
444,3.747896,-0.5911,1.0845,2.6073,55.75340531,48.73986931,1.30999994
445,3.770137,-0.5911,1.0845,2.6073,55.75340531,48.73986931,1.30999994
446,3.775813,-0.5911,1.0845,2.6073,55.75340531,48.73986931,1.30999994
447,3.778923,-0.5911,1.0845,2.6073,55.75340531,48.73986931,1.30999994
448,3.781334,-0.5911,1.0845,2.6073,55.75340531,48.73986931,1.30999994
449,3.800364,-0.5911,1.0845,2.6073,55.75340531,48.73986931,1.30999994
450,3.804648,-0.1801,0.1522,2.5082,55.75340531,48.73986931,1.30999994
451,3.807816,-0.1801,0.1522,2.5082,55.75340531,48.73986931,1.30999994
452,3.811047,-0.1801,0.1522,2.5082,55.75340531,48.73986931,1.30999994
453,3.814231,-0.1801,0.1522,2.5082,55.75340531,48.73986931,1.30999994
454,3.830383,-0.1801,0.1522,2.5082,55.75340531,48.73986931,1.30999994
455,3.836517,-0.1801,0.1522,2.5082,55.75340531,48.73986931,1.30999994
456,3.846205,-0.1801,0.1522,2.5082,55.75340531,48.73986931,1.30999994
457,3.851511,-0.1801,0.1522,2.5082,55.75340531,48.73986931,1.30999994
458,3.85702,-0.1801,0.1522,2.5082,55.75340531,48.73986931,1.30999994
459,3.870988,-0.1801,0.1522,2.5082,55.75340531,48.73986931,1.30999994
460,3.875856,-0.1801,0.1522,2.5082,55.75340531,48.73986931,1.30999994
461,3.87907,-0.414,-0.4675,-0.0201,55.75340531,48.73986931,1.30999994
462,3.890138,-0.414,-0.4675,-0.0201,55.75340531,48.73986931,1.30999994
463,3.902474,-0.414,-0.4675,-0.0201,55.75340531,48.73986931,1.30999994
464,3.91065,-0.414,-0.4675,-0.0201,55.75340531,48.73986931,1.30999994
465,3.921281,-0.414,-0.4675,-0.0201,55.75340531,48.73986931,1.30999994
466,3.940596,-0.414,-0.4675,-0.0201,55.75340531,48.73986931,1.30999994
467,3.942475,-0.414,-0.4675,-0.0201,55.75340531,48.73986931,1.30999994
468,3.944103,-0.8349,-0.9283,-1.1464,55.75340531,48.73986931,1.30999994
469,3.945547,-0.8349,-0.9283,-1.1464,55.75340531,48.73986931,1.30999994
470,3.969335,-0.8349,-0.9283,-1.1464,55.75340531,48.73986931,1.30999994
471,3.971116,-0.8349,-0.9283,-1.1464,55.75340531,48.73986931,1.30999994
472,3.977931,-0.8349,-0.9283,-1.1464,55.75340531,48.73986931,1.30999994
473,4.001106,-0.8349,-0.9283,-1.1464,55.75340531,48.73986931,1.30999994
474,4.004296,-0.8349,-0.9283,-1.1464,55.75340531,48.73986931,1.30999994
475,4.013978,-0.8349,-0.9283,-1.1464,55.75340531,48.73986931,1.30999994
476,4.017204,-0.8349,-0.9283,-1.1464,55.75340531,48.73986931,1.30999994
477,4.019253,-0.8659,-0.9485,-1.9041,55.75340531,48.73986931,1.30999994
478,4.021502,-0.8659,-0.9485,-1.9041,55.75340531,48.73986931,1.30999994
479,4.030341,-0.8659,-0.9485,-1.9041,55.75340531,48.73986931,1.30999994
480,4.045144,-0.8659,-0.9485,-1.9041,55.75340531,48.73986931,1.30999994
481,4.048129,-0.8659,-0.9485,-1.9041,55.75340531,48.73986931,1.30999994
482,4.05298,-0.8659,-0.9485,-1.9041,55.75340531,48.73986931,1.30999994
483,4.071296,-0.8659,-0.9485,-1.9041,55.75340531,48.73986931,1.30999994
484,4.084424,-0.8659,-0.9485,-1.9041,55.75340531,48.73986931,1.30999994
485,4.092267,-0.8659,-0.9485,-1.9041,55.75340531,48.73986931,1.30999994
486,4.104203,-0.8659,-0.9485,-1.9041,55.75340531,48.73986931,1.30999994
487,4.108184,-0.5048,-0.7727,-0.5773,55.75340531,48.73986931,1.30999994
488,4.110972,-0.5048,-0.7727,-0.5773,55.75340531,48.73986931,1.30999994
489,4.113567,-0.5048,-0.7727,-0.5773,55.75340531,48.73986931,1.30999994
490,4.115699,-0.5048,-0.7727,-0.5773,55.75340531,48.73986931,1.30999994
491,4.130156,-0.5048,-0.7727,-0.5773,55.75340531,48.73986931,1.30999994
492,4.147814,-0.5048,-0.7727,-0.5773,55.75340531,48.73986931,1.30999994
493,4.161459,-0.5048,-0.7727,-0.5773,55.75340531,48.73986931,1.30999994
494,4.165327,0.0482,0.1158,-0.3757,55.75340531,48.73986931,1.30999994
495,4.168933,0.0482,0.1158,-0.3757,55.75340531,48.73986931,1.30999994
496,4.17225,0.0482,0.1158,-0.3757,55.75340531,48.73986931,1.30999994
497,4.179308,0.0482,0.1158,-0.3757,55.75340531,48.73986931,1.30999994
498,4.201925,0.0482,0.1158,-0.3757,55.75340531,48.73986931,1.30999994
499,4.208323,0.0482,0.1158,-0.3757,55.75340531,48.73986931,1.30999994
500,4.212084,0.0482,0.1158,-0.3757,55.75340531,48.73986931,1.30999994
501,4.215799,0.0482,0.1158,-0.3757,55.75340531,48.73986931,1.30999994
502,4.230122,0.0482,0.1158,-0.3757,55.75340531,48.73986931,1.30999994
503,4.235913,0.0482,0.1158,-0.3757,55.75340531,48.73986931,1.30999994
504,4.23881,0.0482,0.1158,-0.3757,55.75340531,48.73986931,1.30999994
505,4.241729,-0.5122,0.6899,1.6259,55.75340531,48.73986931,1.30999994
506,4.244686,-0.5122,0.6899,1.6259,55.75340531,48.73986931,1.30999994
507,4.271818,-0.5122,0.6899,1.6259,55.75340531,48.73986931,1.30999994
508,4.278596,-0.5122,0.6899,1.6259,55.75340531,48.73986931,1.30999994
509,4.282924,-0.5122,0.6899,1.6259,55.75340531,48.73986931,1.30999994
510,4.290292,-0.5122,0.6899,1.6259,55.75340531,48.73986931,1.30999994
511,4.294277,-0.5122,0.6899,1.6259,55.75340531,48.73986931,1.30999994
512,4.297086,0.7218,0.1502,1.9896,55.75340531,48.73986931,1.30999994
513,4.29982,0.7218,0.1502,1.9896,55.75340531,48.73986931,1.30999994
514,4.312381,0.7218,0.1502,1.9896,55.75340531,48.73986931,1.30999994
515,4.3163,0.7218,0.1502,1.9896,55.75340531,48.73986931,1.30999994
516,4.347526,0.7218,0.1502,1.9896,55.75340531,48.73986931,1.30999994
517,4.353337,0.7218,0.1502,1.9896,55.75340531,48.73986931,1.30999994
518,4.362611,0.7218,0.1502,1.9896,55.75340531,48.73986931,1.30999994
519,4.366657,0.7218,0.1502,1.9896,55.75340531,48.73986931,1.30999994
520,4.370382,0.2842,-1.6317,1.1384,55.75340531,48.73986931,1.30999994
521,4.374418,0.2842,-1.6317,1.1384,55.75340531,48.73986931,1.30999994
522,4.378506,0.2842,-1.6317,1.1384,55.75340531,48.73986931,1.30999994
523,4.399918,0.2842,-1.6317,1.1384,55.75340531,48.73986931,1.30999994
524,4.404313,0.2842,-1.6317,1.1384,55.75340531,48.73986931,1.30999994
525,4.412681,0.2842,-1.6317,1.1384,55.75340531,48.73986931,1.30999994
526,4.416403,0.2842,-1.6317,1.1384,55.75340531,48.73986931,1.30999994
527,4.429401,0.2842,-1.6317,1.1384,55.75340531,48.73986931,1.30999994
528,4.436606,0.2842,-1.6317,1.1384,55.75340531,48.73986931,1.30999994
529,4.440731,0.2842,-1.6317,1.1384,55.75340531,48.73986931,1.30999994
530,4.443072,0.4565,-0.4138,-0.647,55.75340531,48.73986931,1.30999994
531,4.445575,0.4565,-0.4138,-0.647,55.75340531,48.73986931,1.30999994
532,4.479104,0.4565,-0.4138,-0.647,55.75340531,48.73986931,1.30999994
533,4.482518,0.4565,-0.4138,-0.647,55.75340531,48.73986931,1.30999994
534,4.489134,0.4565,-0.4138,-0.647,55.75340531,48.73986931,1.30999994
535,4.493426,0.4565,-0.4138,-0.647,55.75340531,48.73986931,1.30999994
536,4.511084,0.4565,-0.4138,-0.647,55.75340531,48.73986931,1.30999994
537,4.517068,0.4565,-0.4138,-0.647,55.75340531,48.73986931,1.30999994
538,4.520268,0.4565,-0.4138,-0.647,55.75340531,48.73986931,1.30999994
539,4.523711,0.2733,-0.1189,-2.0432,55.75340531,48.73986931,1.30999994
540,4.526994,0.2733,-0.1189,-2.0432,55.75340531,48.73986931,1.30999994
541,4.550368,0.2733,-0.1189,-2.0432,55.75340531,48.73986931,1.30999994
542,4.566374,0.2733,-0.1189,-2.0432,55.75340531,48.73986931,1.30999994
543,4.569605,0.2733,-0.1189,-2.0432,55.75340505,48.73988668,0.85000002
544,4.572137,0.2733,-0.1189,-2.0432,55.75340505,48.73988668,0.85000002
545,4.577885,0.2733,-0.1189,-2.0432,55.75340505,48.73988668,0.85000002
546,4.583382,0.2733,-0.1189,-2.0432,55.75340505,48.73988668,0.85000002
547,4.586566,-0.162,-0.324,-1.2765,55.75340505,48.73988668,0.85000002
548,4.589004,-0.162,-0.324,-1.2765,55.75340505,48.73988668,0.85000002
549,4.613712,-0.162,-0.324,-1.2765,55.75340505,48.73988668,0.85000002
550,4.619404,-0.162,-0.324,-1.2765,55.75340505,48.73988668,0.85000002
551,4.629468,-0.162,-0.324,-1.2765,55.75340505,48.73988668,0.85000002
552,4.632588,-0.162,-0.324,-1.2765,55.75340505,48.73988668,0.85000002
553,4.645408,-0.162,-0.324,-1.2765,55.75340505,48.73988668,0.85000002
554,4.649844,-0.162,-0.324,-1.2765,55.75340505,48.73988668,0.85000002
555,4.652179,-0.162,-0.324,-1.2765,55.75340505,48.73988668,0.85000002
556,4.655044,0.3468,0.3391,0.1759,55.75340505,48.73988668,0.85000002
557,4.680415,0.3468,0.3391,0.1759,55.75340505,48.73988668,0.85000002
558,4.684812,0.3468,0.3391,0.1759,55.75340505,48.73988668,0.85000002
559,4.689702,0.3468,0.3391,0.1759,55.75340505,48.73988668,0.85000002
560,4.693637,0.3468,0.3391,0.1759,55.75340505,48.73988668,0.85000002
561,4.698171,0.3468,0.3391,0.1759,55.75340505,48.73988668,0.85000002
562,4.712243,0.3468,0.3391,0.1759,55.75340505,48.73988668,0.85000002
563,4.716362,0.3468,0.3391,0.1759,55.75340505,48.73988668,0.85000002
564,4.71852,-0.1614,0.6621,1.6795,55.75340505,48.73988668,0.85000002
565,4.721191,-0.1614,0.6621,1.6795,55.75340505,48.73988668,0.85000002
566,4.747072,-0.1614,0.6621,1.6795,55.75340505,48.73988668,0.85000002
567,4.768697,-0.1614,0.6621,1.6795,55.75340505,48.73988668,0.85000002
568,4.774071,-0.1614,0.6621,1.6795,55.75340505,48.73988668,0.85000002
569,4.777463,-0.1614,0.6621,1.6795,55.75340505,48.73988668,0.85000002
570,4.780517,-0.1614,0.6621,1.6795,55.75340505,48.73988668,0.85000002
571,4.783965,-0.1614,0.6621,1.6795,55.75340505,48.73988668,0.85000002
572,4.786767,-0.7811,0.4092,2.4458,55.75340505,48.73988668,0.85000002
573,4.789576,-0.7811,0.4092,2.4458,55.75340505,48.73988668,0.85000002
574,4.813952,-0.7811,0.4092,2.4458,55.75340505,48.73988668,0.85000002
575,4.820869,-0.7811,0.4092,2.4458,55.75340505,48.73988668,0.85000002
576,4.829844,-0.7811,0.4092,2.4458,55.75340505,48.73988668,0.85000002
577,4.838144,-0.7811,0.4092,2.4458,55.75340505,48.73988668,0.85000002
578,4.845102,-0.7811,0.4092,2.4458,55.75340505,48.73988668,0.85000002
579,4.84923,-0.7811,0.4092,2.4458,55.75340505,48.73988668,0.85000002
580,4.857851,-0.7811,0.4092,2.4458,55.75340505,48.73988668,0.85000002
581,4.861944,-0.1756,-0.6926,1.153,55.75340505,48.73988668,0.85000002
582,4.8643,-0.1756,-0.6926,1.153,55.75340505,48.73988668,0.85000002
583,4.880232,-0.1756,-0.6926,1.153,55.75340505,48.73988668,0.85000002
584,4.889007,-0.1756,-0.6926,1.153,55.75340505,48.73988668,0.85000002
585,4.901695,-0.1756,-0.6926,1.153,55.75340505,48.73988668,0.85000002
586,4.911167,-0.1756,-0.6926,1.153,55.75340505,48.73988668,0.85000002
587,4.914153,-0.1756,-0.6926,1.153,55.75340505,48.73988668,0.85000002
588,4.93413,-0.1505,-1.4107,-0.0006,55.75340505,48.73988668,0.85000002
589,4.938453,-0.1505,-1.4107,-0.0006,55.75340505,48.73988668,0.85000002
590,4.940922,-0.1505,-1.4107,-0.0006,55.75340505,48.73988668,0.85000002
591,4.943532,-0.1505,-1.4107,-0.0006,55.75340505,48.73988668,0.85000002
592,4.969182,-0.1505,-1.4107,-0.0006,55.75340505,48.73988668,0.85000002
593,4.973675,-0.1505,-1.4107,-0.0006,55.75340505,48.73988668,0.85000002
594,4.977695,-0.1505,-1.4107,-0.0006,55.75340505,48.73988668,0.85000002
595,4.98442,-0.1505,-1.4107,-0.0006,55.75340505,48.73988668,0.85000002
596,5.005075,-0.7645,-1.1073,-1.3727,55.75340505,48.73988668,0.85000002
597,5.009493,-0.7645,-1.1073,-1.3727,55.75340505,48.73988668,0.85000002
598,5.012729,-0.7645,-1.1073,-1.3727,55.75340505,48.73988668,0.85000002
599,5.017214,-0.7645,-1.1073,-1.3727,55.75340505,48.73988668,0.85000002
600,5.029591,-0.7645,-1.1073,-1.3727,55.75340505,48.73988668,0.85000002
601,5.033579,-0.7645,-1.1073,-1.3727,55.75340505,48.73988668,0.85000002
602,5.045102,-0.7645,-1.1073,-1.3727,55.75340505,48.73988668,0.85000002
603,5.048527,-0.7645,-1.1073,-1.3727,55.75340505,48.73988668,0.85000002
604,5.057044,-0.7645,-1.1073,-1.3727,55.75340505,48.73988668,0.85000002
605,5.065228,-0.7645,-1.1073,-1.3727,55.75340505,48.73988668,0.85000002
606,5.068721,-0.0656,-1.0255,-0.9388,55.75340505,48.73988668,0.85000002
607,5.071109,-0.0656,-1.0255,-0.9388,55.75340505,48.73988668,0.85000002
608,5.080579,-0.0656,-1.0255,-0.9388,55.75340505,48.73988668,0.85000002
609,5.089447,-0.0656,-1.0255,-0.9388,55.75340505,48.73988668,0.85000002
610,5.110673,-0.0656,-1.0255,-0.9388,55.75340505,48.73988668,0.85000002
611,5.114907,-0.0656,-1.0255,-0.9388,55.75340505,48.73988668,0.85000002
612,5.117274,-0.0656,-1.0255,-0.9388,55.75340505,48.73988668,0.85000002
613,5.118913,-0.0656,-1.0255,-0.9388,55.75340505,48.73988668,0.85000002
614,5.135149,-0.0656,-1.0255,-0.9388,55.75340505,48.73988668,0.85000002
615,5.140534,-0.1282,-0.7649,-0.8975,55.75340505,48.73988668,0.85000002
616,5.143356,-0.1282,-0.7649,-0.8975,55.75340505,48.73988668,0.85000002
617,5.169157,-0.1282,-0.7649,-0.8975,55.75340505,48.73988668,0.85000002
618,5.174452,-0.1282,-0.7649,-0.8975,55.75340505,48.73988668,0.85000002
619,5.177642,-0.1282,-0.7649,-0.8975,55.75340505,48.73988668,0.85000002
620,5.184992,-0.1282,-0.7649,-0.8975,55.75340505,48.73988668,0.85000002
621,5.206084,-0.1282,-0.7649,-0.8975,55.75340505,48.73988668,0.85000002
622,5.213536,0.1039,-0.2131,-0.6426,55.75340505,48.73988668,0.85000002
623,5.218739,0.1039,-0.2131,-0.6426,55.75340505,48.73988668,0.85000002
624,5.22383,0.1039,-0.2131,-0.6426,55.75340505,48.73988668,0.85000002
625,5.230022,0.1039,-0.2131,-0.6426,55.75340505,48.73988668,0.85000002
626,5.234301,0.1039,-0.2131,-0.6426,55.75340505,48.73988668,0.85000002
627,5.245838,0.1039,-0.2131,-0.6426,55.75340505,48.73988668,0.85000002
628,5.265437,0.1039,-0.2131,-0.6426,55.75340505,48.73988668,0.85000002
629,5.269398,0.1039,-0.2131,-0.6426,55.75340505,48.73988668,0.85000002
630,5.280264,0.1039,-0.2131,-0.6426,55.75340505,48.73988668,0.85000002
631,5.284159,0.1039,-0.2131,-0.6426,55.75340505,48.73988668,0.85000002
632,5.286378,0.6053,0.5855,0.847,55.75340505,48.73988668,0.85000002
633,5.288307,0.6053,0.5855,0.847,55.75340505,48.73988668,0.85000002
634,5.290318,0.6053,0.5855,0.847,55.75340505,48.73988668,0.85000002
635,5.311024,0.6053,0.5855,0.847,55.75340505,48.73988668,0.85000002
636,5.315035,0.6053,0.5855,0.847,55.75340505,48.73988668,0.85000002
637,5.317384,0.6053,0.5855,0.847,55.75340505,48.73988668,0.85000002
638,5.335836,0.6053,0.5855,0.847,55.75340505,48.73988668,0.85000002
639,5.347278,0.7602,-0.5395,3.6939,55.75340505,48.73988668,0.85000002
640,5.353167,0.7602,-0.5395,3.6939,55.75340505,48.73988668,0.85000002
641,5.356346,0.7602,-0.5395,3.6939,55.75340505,48.73988668,0.85000002
642,5.36939,0.7602,-0.5395,3.6939,55.75340505,48.73988668,0.85000002
643,5.373879,0.7602,-0.5395,3.6939,55.75340505,48.73988668,0.85000002
644,5.377544,0.7602,-0.5395,3.6939,55.75340505,48.73988668,0.85000002
645,5.400276,0.7602,-0.5395,3.6939,55.75340505,48.73988668,0.85000002
646,5.404317,0.7602,-0.5395,3.6939,55.75340505,48.73988668,0.85000002
647,5.406727,0.7602,-0.5395,3.6939,55.75340505,48.73988668,0.85000002
648,5.426495,0.7602,-0.5395,3.6939,55.75340505,48.73988668,0.85000002
649,5.431095,0.7602,-0.5395,3.6939,55.75340505,48.73988668,0.85000002
650,5.433703,0.7805,-0.6623,0.096,55.75340505,48.73988668,0.85000002
651,5.436006,0.7805,-0.6623,0.096,55.75340505,48.73988668,0.85000002
652,5.445015,0.7805,-0.6623,0.096,55.75340505,48.73988668,0.85000002
653,5.466339,0.7805,-0.6623,0.096,55.75340505,48.73988668,0.85000002
654,5.470421,0.7805,-0.6623,0.096,55.75340505,48.73988668,0.85000002
655,5.473004,0.7805,-0.6623,0.096,55.75340505,48.73988668,0.85000002
656,5.482607,0.7805,-0.6623,0.096,55.75340505,48.73988668,0.85000002
657,5.490193,0.7805,-0.6623,0.096,55.75340505,48.73988668,0.85000002
658,5.499421,0.7805,-0.6623,0.096,55.75340505,48.73988668,0.85000002
659,5.501896,-0.4347,-0.5088,-0.2515,55.75340505,48.73988668,0.85000002
660,5.50406,-0.4347,-0.5088,-0.2515,55.75340505,48.73988668,0.85000002
661,5.510612,-0.4347,-0.5088,-0.2515,55.75340505,48.73988668,0.85000002
662,5.516569,-0.4347,-0.5088,-0.2515,55.75340505,48.73988668,0.85000002
663,5.542064,-0.4347,-0.5088,-0.2515,55.75340505,48.73988668,0.85000002
664,5.550606,-0.4347,-0.5088,-0.2515,55.75340505,48.73988668,0.85000002
665,5.566941,-0.4347,-0.5088,-0.2515,55.75340505,48.73988668,0.85000002
666,5.568607,0.0895,-0.1845,-2.4878,55.75339876,48.73991896,1.20000005
667,5.569869,0.0895,-0.1845,-2.4878,55.75339876,48.73991896,1.20000005
668,5.570973,0.0895,-0.1845,-2.4878,55.75339876,48.73991896,1.20000005
669,5.580623,0.0895,-0.1845,-2.4878,55.75339876,48.73991896,1.20000005
670,5.608071,0.0895,-0.1845,-2.4878,55.75339876,48.73991896,1.20000005
671,5.611563,0.0895,-0.1845,-2.4878,55.75339876,48.73991896,1.20000005
672,5.614044,0.0895,-0.1845,-2.4878,55.75339876,48.73991896,1.20000005
673,5.628205,0.0895,-0.1845,-2.4878,55.75339876,48.73991896,1.20000005
674,5.631062,0.0895,-0.1845,-2.4878,55.75339876,48.73991896,1.20000005
675,5.633331,-0.335,-0.4629,-0.9147,55.75339876,48.73991896,1.20000005
676,5.635856,-0.335,-0.4629,-0.9147,55.75339876,48.73991896,1.20000005
677,5.644738,-0.335,-0.4629,-0.9147,55.75339876,48.73991896,1.20000005
678,5.680695,-0.335,-0.4629,-0.9147,55.75339876,48.73991896,1.20000005
679,5.682823,-0.335,-0.4629,-0.9147,55.75339876,48.73991896,1.20000005
680,5.684088,-0.335,-0.4629,-0.9147,55.75339876,48.73991896,1.20000005
681,5.685331,-0.335,-0.4629,-0.9147,55.75339876,48.73991896,1.20000005
682,5.69043,-0.335,-0.4629,-0.9147,55.75339876,48.73991896,1.20000005
683,5.699905,-0.335,-0.4629,-0.9147,55.75339876,48.73991896,1.20000005
684,5.70218,0.2199,0.2581,-0.02,55.75339876,48.73991896,1.20000005
685,5.703417,0.2199,0.2581,-0.02,55.75339876,48.73991896,1.20000005
686,5.71128,0.2199,0.2581,-0.02,55.75339876,48.73991896,1.20000005
687,5.718922,0.2199,0.2581,-0.02,55.75339876,48.73991896,1.20000005
688,5.747198,0.2199,0.2581,-0.02,55.75339876,48.73991896,1.20000005
689,5.757798,0.2199,0.2581,-0.02,55.75339876,48.73991896,1.20000005
690,5.7706,0.2199,0.2581,-0.02,55.75339876,48.73991896,1.20000005
691,5.77759,0.2199,0.2581,-0.02,55.75339876,48.73991896,1.20000005
692,5.782302,0.2199,0.2581,-0.02,55.75339876,48.73991896,1.20000005
693,5.784935,0.2199,0.2581,-0.02,55.75339876,48.73991896,1.20000005
694,5.78801,0.2199,0.2581,-0.02,55.75339876,48.73991896,1.20000005
695,5.790767,0.3274,0.7747,0.8678,55.75339876,48.73991896,1.20000005
696,5.813939,0.3274,0.7747,0.8678,55.75339876,48.73991896,1.20000005
697,5.828374,0.3274,0.7747,0.8678,55.75339876,48.73991896,1.20000005
698,5.833105,0.3274,0.7747,0.8678,55.75339876,48.73991896,1.20000005
699,5.839454,0.3274,0.7747,0.8678,55.75339876,48.73991896,1.20000005
700,5.848413,0.3274,0.7747,0.8678,55.75339876,48.73991896,1.20000005
701,5.854078,0.3274,0.7747,0.8678,55.75339876,48.73991896,1.20000005
702,5.857347,-0.8634,-1.0359,4.4628,55.75339876,48.73991896,1.20000005
703,5.860799,-0.8634,-1.0359,4.4628,55.75339876,48.73991896,1.20000005
704,5.88033,-0.8634,-1.0359,4.4628,55.75339876,48.73991896,1.20000005
705,5.885919,-0.8634,-1.0359,4.4628,55.75339876,48.73991896,1.20000005
706,5.88939,-0.8634,-1.0359,4.4628,55.75339876,48.73991896,1.20000005
707,5.90135,-0.8634,-1.0359,4.4628,55.75339876,48.73991896,1.20000005
708,5.911029,-0.8634,-1.0359,4.4628,55.75339876,48.73991896,1.20000005
709,5.913722,-0.8634,-1.0359,4.4628,55.75339876,48.73991896,1.20000005
710,5.919975,-0.8634,-1.0359,4.4628,55.75339876,48.73991896,1.20000005
711,5.923943,-1.3432,-0.1899,-0.105,55.75339876,48.73991896,1.20000005
712,5.92652,-1.3432,-0.1899,-0.105,55.75339876,48.73991896,1.20000005
713,5.945793,-1.3432,-0.1899,-0.105,55.75339876,48.73991896,1.20000005
714,5.958313,-1.3432,-0.1899,-0.105,55.75339876,48.73991896,1.20000005
715,5.960613,-1.3432,-0.1899,-0.105,55.75339876,48.73991896,1.20000005
716,5.969363,-1.3432,-0.1899,-0.105,55.75339876,48.73991896,1.20000005
717,5.977306,-1.3432,-0.1899,-0.105,55.75339876,48.73991896,1.20000005
718,5.989588,-1.3432,-0.1899,-0.105,55.75339876,48.73991896,1.20000005
719,5.994144,-0.5838,-0.8488,-0.7625,55.75339876,48.73991896,1.20000005
720,5.996419,-0.5838,-0.8488,-0.7625,55.75339876,48.73991896,1.20000005
721,6.013463,-0.5838,-0.8488,-0.7625,55.75339876,48.73991896,1.20000005
722,6.029693,-0.5838,-0.8488,-0.7625,55.75339876,48.73991896,1.20000005
723,6.033477,-0.5838,-0.8488,-0.7625,55.75339876,48.73991896,1.20000005
724,6.036927,-0.5838,-0.8488,-0.7625,55.75339876,48.73991896,1.20000005
725,6.045946,-0.5838,-0.8488,-0.7625,55.75339876,48.73991896,1.20000005
726,6.050376,-0.5838,-0.8488,-0.7625,55.75339876,48.73991896,1.20000005
727,6.05434,0.2286,-0.3034,-2.6181,55.75339876,48.73991896,1.20000005
728,6.057832,0.2286,-0.3034,-2.6181,55.75339876,48.73991896,1.20000005
729,6.08064,0.2286,-0.3034,-2.6181,55.75339876,48.73991896,1.20000005
730,6.086576,0.2286,-0.3034,-2.6181,55.75339876,48.73991896,1.20000005
731,6.091517,0.2286,-0.3034,-2.6181,55.75339876,48.73991896,1.20000005
732,6.103495,0.2286,-0.3034,-2.6181,55.75339876,48.73991896,1.20000005
733,6.109197,0.2286,-0.3034,-2.6181,55.75339876,48.73991896,1.20000005
734,6.112538,0.2286,-0.3034,-2.6181,55.75339876,48.73991896,1.20000005
735,6.121608,0.2286,-0.3034,-2.6181,55.75339876,48.73991896,1.20000005
736,6.125312,0.4279,-0.2777,-1.7214,55.75339876,48.73991896,1.20000005
737,6.127823,0.4279,-0.2777,-1.7214,55.75339876,48.73991896,1.20000005
738,6.146284,0.4279,-0.2777,-1.7214,55.75339876,48.73991896,1.20000005
739,6.170019,0.4279,-0.2777,-1.7214,55.75339876,48.73991896,1.20000005
740,6.176726,0.4279,-0.2777,-1.7214,55.75339876,48.73991896,1.20000005
741,6.18146,0.4279,-0.2777,-1.7214,55.75339876,48.73991896,1.20000005
742,6.185264,0.4279,-0.2777,-1.7214,55.75339876,48.73991896,1.20000005
743,6.200243,0.4279,-0.2777,-1.7214,55.75339876,48.73991896,1.20000005
744,6.205559,0.4279,-0.2777,-1.7214,55.75339876,48.73991896,1.20000005
745,6.208717,0.4279,-0.2777,-1.7214,55.75339876,48.73991896,1.20000005
746,6.212371,-0.1395,-0.0255,-1.5534,55.75339876,48.73991896,1.20000005
747,6.223913,-0.1395,-0.0255,-1.5534,55.75339876,48.73991896,1.20000005
748,6.233595,-0.1395,-0.0255,-1.5534,55.75339876,48.73991896,1.20000005
749,6.239435,-0.1395,-0.0255,-1.5534,55.75339876,48.73991896,1.20000005
750,6.24468,-0.1395,-0.0255,-1.5534,55.75339876,48.73991896,1.20000005
751,6.247532,-0.1395,-0.0255,-1.5534,55.75339876,48.73991896,1.20000005
752,6.260071,-0.1395,-0.0255,-1.5534,55.75339876,48.73991896,1.20000005
753,6.264511,0.72,1.0875,2.4854,55.75339876,48.73991896,1.20000005
754,6.267003,0.72,1.0875,2.4854,55.75339876,48.73991896,1.20000005
755,6.28045,0.72,1.0875,2.4854,55.75339876,48.73991896,1.20000005
756,6.28946,0.72,1.0875,2.4854,55.75339876,48.73991896,1.20000005
757,6.311266,0.72,1.0875,2.4854,55.75339876,48.73991896,1.20000005
758,6.317357,0.72,1.0875,2.4854,55.75339876,48.73991896,1.20000005
759,6.321736,0.72,1.0875,2.4854,55.75339876,48.73991896,1.20000005
760,6.325543,0.72,1.0875,2.4854,55.75339876,48.73991896,1.20000005
761,6.340733,0.4127,-0.1857,4.0443,55.75339876,48.73991896,1.20000005
762,6.346184,0.4127,-0.1857,4.0443,55.75339876,48.73991896,1.20000005
763,6.349436,0.4127,-0.1857,4.0443,55.75339876,48.73991896,1.20000005
764,6.370406,0.4127,-0.1857,4.0443,55.75339876,48.73991896,1.20000005
765,6.378845,0.4127,-0.1857,4.0443,55.75339876,48.73991896,1.20000005
766,6.38425,0.4127,-0.1857,4.0443,55.75339876,48.73991896,1.20000005
767,6.38807,0.4127,-0.1857,4.0443,55.75339876,48.73991896,1.20000005
768,6.401578,0.0113,-0.1149,0.1075,55.75339876,48.73991896,1.20000005
769,6.406659,0.0113,-0.1149,0.1075,55.75339876,48.73991896,1.20000005
770,6.410149,0.0113,-0.1149,0.1075,55.75339876,48.73991896,1.20000005
771,6.414641,0.0113,-0.1149,0.1075,55.75339876,48.73991896,1.20000005
772,6.430625,0.0113,-0.1149,0.1075,55.75339876,48.73991896,1.20000005
773,6.445083,0.0113,-0.1149,0.1075,55.75339876,48.73991896,1.20000005
774,6.449683,0.0113,-0.1149,0.1075,55.75339876,48.73991896,1.20000005
775,6.452564,0.0113,-0.1149,0.1075,55.75339876,48.73991896,1.20000005
776,6.475123,0.0113,-0.1149,0.1075,55.75339876,48.73991896,1.20000005
777,6.481213,0.0113,-0.1149,0.1075,55.75339876,48.73991896,1.20000005
778,6.484144,-0.2316,-0.4618,-1.0915,55.75339876,48.73991896,1.20000005
779,6.487034,-0.2316,-0.4618,-1.0915,55.75339876,48.73991896,1.20000005
780,6.49085,-0.2316,-0.4618,-1.0915,55.75339876,48.73991896,1.20000005
781,6.51136,-0.2316,-0.4618,-1.0915,55.75339876,48.73991896,1.20000005
782,6.515016,-0.2316,-0.4618,-1.0915,55.75339876,48.73991896,1.20000005
783,6.516921,-0.2316,-0.4618,-1.0915,55.75339876,48.73991896,1.20000005
784,6.530695,-0.2316,-0.4618,-1.0915,55.75339876,48.73991896,1.20000005
785,6.551215,-0.2316,-0.4618,-1.0915,55.75339876,48.73991896,1.20000005
786,6.554869,-0.2316,-0.4618,-1.0915,55.75339876,48.73991896,1.20000005
787,6.556746,-0.6514,-0.4349,-1.5238,55.75339876,48.73991896,1.20000005
788,6.558422,-0.6514,-0.4349,-1.5238,55.75339876,48.73991896,1.20000005
789,6.569309,-0.6514,-0.4349,-1.5238,55.75339876,48.73991896,1.20000005
790,6.572784,-0.6514,-0.4349,-1.5238,55.75339876,48.73991896,1.20000005
791,6.583477,-0.6514,-0.4349,-1.5238,55.75339876,48.73991896,1.20000005
792,6.602544,-0.6514,-0.4349,-1.5238,55.75338863,48.73993977,1.02999997
793,6.605888,-0.6514,-0.4349,-1.5238,55.75338863,48.73993977,1.02999997
794,6.614147,-0.6514,-0.4349,-1.5238,55.75338863,48.73993977,1.02999997
795,6.617556,0.3668,-1.5122,-1.4063,55.75338863,48.73993977,1.02999997
796,6.619866,0.3668,-1.5122,-1.4063,55.75338863,48.73993977,1.02999997
797,6.630673,0.3668,-1.5122,-1.4063,55.75338863,48.73993977,1.02999997
798,6.645475,0.3668,-1.5122,-1.4063,55.75338863,48.73993977,1.02999997
799,6.649539,0.3668,-1.5122,-1.4063,55.75338863,48.73993977,1.02999997
800,6.671097,0.3668,-1.5122,-1.4063,55.75338863,48.73993977,1.02999997
801,6.679033,0.3668,-1.5122,-1.4063,55.75338863,48.73993977,1.02999997
802,6.681482,0.3668,-1.5122,-1.4063,55.75338863,48.73993977,1.02999997
803,6.689627,0.3668,-1.5122,-1.4063,55.75338863,48.73993977,1.02999997
804,6.693233,0.3668,-1.5122,-1.4063,55.75338863,48.73993977,1.02999997
805,6.695523,0.3668,-1.5122,-1.4063,55.75338863,48.73993977,1.02999997
806,6.697532,-0.6611,0.4098,-0.6021,55.75338863,48.73993977,1.02999997
807,6.712516,-0.6611,0.4098,-0.6021,55.75338863,48.73993977,1.02999997
808,6.715994,-0.6611,0.4098,-0.6021,55.75338863,48.73993977,1.02999997
809,6.723483,-0.6611,0.4098,-0.6021,55.75338863,48.73993977,1.02999997
810,6.74725,-0.6611,0.4098,-0.6021,55.75338863,48.73993977,1.02999997
811,6.753601,-0.6611,0.4098,-0.6021,55.75338863,48.73993977,1.02999997
812,6.762491,-0.6611,0.4098,-0.6021,55.75338863,48.73993977,1.02999997
813,6.766181,-0.2589,1.838,1.9867,55.75338863,48.73993977,1.02999997
814,6.769162,-0.2589,1.838,1.9867,55.75338863,48.73993977,1.02999997
815,6.772125,-0.2589,1.838,1.9867,55.75338863,48.73993977,1.02999997
816,6.779445,-0.2589,1.838,1.9867,55.75338863,48.73993977,1.02999997
817,6.802363,-0.2589,1.838,1.9867,55.75338863,48.73993977,1.02999997
818,6.806353,-0.2589,1.838,1.9867,55.75338863,48.73993977,1.02999997
819,6.808591,-0.2589,1.838,1.9867,55.75338863,48.73993977,1.02999997
820,6.829722,-0.2589,1.838,1.9867,55.75338863,48.73993977,1.02999997
821,6.834627,-0.2589,1.838,1.9867,55.75338863,48.73993977,1.02999997
822,6.836932,-0.2589,1.838,1.9867,55.75338863,48.73993977,1.02999997
823,6.839007,-0.8958,-0.899,3.8688,55.75338863,48.73993977,1.02999997
824,6.844448,-0.8958,-0.899,3.8688,55.75338863,48.73993977,1.02999997
825,6.872802,-0.8958,-0.899,3.8688,55.75338863,48.73993977,1.02999997
826,6.878396,-0.8958,-0.899,3.8688,55.75338863,48.73993977,1.02999997
827,6.882135,-0.8958,-0.899,3.8688,55.75338863,48.73993977,1.02999997
828,6.890411,-0.8958,-0.899,3.8688,55.75338863,48.73993977,1.02999997
829,6.895914,-0.8958,-0.899,3.8688,55.75338863,48.73993977,1.02999997
830,6.899149,-0.8958,-0.899,3.8688,55.75338863,48.73993977,1.02999997
831,6.902278,-2.4757,0.1356,-0.2761,55.75338863,48.73993977,1.02999997
832,6.912015,-2.4757,0.1356,-0.2761,55.75338863,48.73993977,1.02999997
833,6.915864,-2.4757,0.1356,-0.2761,55.75338863,48.73993977,1.02999997
834,6.946861,-2.4757,0.1356,-0.2761,55.75338863,48.73993977,1.02999997
835,6.951976,-2.4757,0.1356,-0.2761,55.75338863,48.73993977,1.02999997
836,6.954922,-2.4757,0.1356,-0.2761,55.75338863,48.73993977,1.02999997
837,6.963368,-2.4757,0.1356,-0.2761,55.75338863,48.73993977,1.02999997
838,6.966287,-0.4157,-0.8993,-1.4953,55.75338863,48.73993977,1.02999997
839,6.968775,-0.4157,-0.8993,-1.4953,55.75338863,48.73993977,1.02999997
840,6.970964,-0.4157,-0.8993,-1.4953,55.75338863,48.73993977,1.02999997
841,6.981851,-0.4157,-0.8993,-1.4953,55.75338863,48.73993977,1.02999997
842,7.013906,-0.4157,-0.8993,-1.4953,55.75338863,48.73993977,1.02999997
843,7.017564,-0.4157,-0.8993,-1.4953,55.75338863,48.73993977,1.02999997
844,7.019803,-0.4157,-0.8993,-1.4953,55.75338863,48.73993977,1.02999997
845,7.029186,-0.4157,-0.8993,-1.4953,55.75338863,48.73993977,1.02999997
846,7.034966,-0.4157,-0.8993,-1.4953,55.75338863,48.73993977,1.02999997
847,7.03938,-0.1995,-0.807,-2.2173,55.75338863,48.73993977,1.02999997
848,7.042245,-0.1995,-0.807,-2.2173,55.75338863,48.73993977,1.02999997
849,7.045444,-0.1995,-0.807,-2.2173,55.75338863,48.73993977,1.02999997
850,7.05527,-0.1995,-0.807,-2.2173,55.75338863,48.73993977,1.02999997
851,7.080424,-0.1995,-0.807,-2.2173,55.75338863,48.73993977,1.02999997
852,7.090565,-0.1995,-0.807,-2.2173,55.75338863,48.73993977,1.02999997
853,7.095245,-0.1995,-0.807,-2.2173,55.75338863,48.73993977,1.02999997
854,7.111279,-0.1995,-0.807,-2.2173,55.75338863,48.73993977,1.02999997
855,7.118678,-0.1995,-0.807,-2.2173,55.75338863,48.73993977,1.02999997
856,7.12218,-0.1995,-0.807,-2.2173,55.75338863,48.73993977,1.02999997
857,7.125475,0.8579,-0.9375,-1.0215,55.75338863,48.73993977,1.02999997
858,7.128068,0.8579,-0.9375,-1.0215,55.75338863,48.73993977,1.02999997
859,7.147423,0.8579,-0.9375,-1.0215,55.75338863,48.73993977,1.02999997
860,7.153277,0.8579,-0.9375,-1.0215,55.75338863,48.73993977,1.02999997
861,7.167974,0.8579,-0.9375,-1.0215,55.75338863,48.73993977,1.02999997
862,7.171955,0.8579,-0.9375,-1.0215,55.75338863,48.73993977,1.02999997
863,7.174559,0.8579,-0.9375,-1.0215,55.75338863,48.73993977,1.02999997
864,7.177578,0.8579,-0.9375,-1.0215,55.75338863,48.73993977,1.02999997
865,7.183529,0.8579,-0.9375,-1.0215,55.75338863,48.73993977,1.02999997
866,7.186838,0.6477,0.9745,-0.1988,55.75338863,48.73993977,1.02999997
867,7.189526,0.6477,0.9745,-0.1988,55.75338863,48.73993977,1.02999997
868,7.214467,0.6477,0.9745,-0.1988,55.75338863,48.73993977,1.02999997
869,7.224123,0.6477,0.9745,-0.1988,55.75338863,48.73993977,1.02999997
870,7.227858,0.6477,0.9745,-0.1988,55.75338863,48.73993977,1.02999997
871,7.232375,0.6477,0.9745,-0.1988,55.75338863,48.73993977,1.02999997
872,7.245557,0.6477,0.9745,-0.1988,55.75338863,48.73993977,1.02999997
873,7.249638,0.6477,0.9745,-0.1988,55.75338863,48.73993977,1.02999997
874,7.252179,0.5599,1.5002,1.3549,55.75338863,48.73993977,1.02999997
875,7.255045,0.5599,1.5002,1.3549,55.75338863,48.73993977,1.02999997
876,7.280933,0.5599,1.5002,1.3549,55.75338863,48.73993977,1.02999997
877,7.289797,0.5599,1.5002,1.3549,55.75338863,48.73993977,1.02999997
878,7.295903,0.5599,1.5002,1.3549,55.75338863,48.73993977,1.02999997
879,7.312298,0.5599,1.5002,1.3549,55.75338863,48.73993977,1.02999997
880,7.316035,0.5599,1.5002,1.3549,55.75338863,48.73993977,1.02999997
881,7.317997,0.5599,1.5002,1.3549,55.75338863,48.73993977,1.02999997
882,7.320142,0.5921,-1.4659,2.8233,55.75338863,48.73993977,1.02999997
883,7.322371,0.5921,-1.4659,2.8233,55.75338863,48.73993977,1.02999997
884,7.34805,0.5921,-1.4659,2.8233,55.75338863,48.73993977,1.02999997
885,7.35137,0.5921,-1.4659,2.8233,55.75338863,48.73993977,1.02999997
886,7.368442,0.5921,-1.4659,2.8233,55.75338863,48.73993977,1.02999997
887,7.371809,0.5921,-1.4659,2.8233,55.75338863,48.73993977,1.02999997
888,7.374172,0.5921,-1.4659,2.8233,55.75338863,48.73993977,1.02999997
889,7.378487,0.5921,-1.4659,2.8233,55.75338863,48.73993977,1.02999997
890,7.385528,0.5921,-1.4659,2.8233,55.75338863,48.73993977,1.02999997
891,7.388171,0.5921,-1.4659,2.8233,55.75338863,48.73993977,1.02999997
892,7.390443,0.504,-0.9303,0.794,55.75338863,48.73993977,1.02999997
893,7.414076,0.504,-0.9303,0.794,55.75338863,48.73993977,1.02999997
894,7.429682,0.504,-0.9303,0.794,55.75338863,48.73993977,1.02999997
895,7.434457,0.504,-0.9303,0.794,55.75338863,48.73993977,1.02999997
896,7.445781,0.504,-0.9303,0.794,55.75338863,48.73993977,1.02999997
897,7.451547,0.504,-0.9303,0.794,55.75338863,48.73993977,1.02999997
898,7.465515,0.4444,-0.5676,-1.135,55.75338863,48.73993977,1.02999997
899,7.472377,0.4444,-0.5676,-1.135,55.75338863,48.73993977,1.02999997
900,7.478654,0.4444,-0.5676,-1.135,55.75338863,48.73993977,1.02999997
901,7.482727,0.4444,-0.5676,-1.135,55.75338863,48.73993977,1.02999997
902,7.489049,0.4444,-0.5676,-1.135,55.75338863,48.73993977,1.02999997
903,7.510628,0.4444,-0.5676,-1.135,55.75338863,48.73993977,1.02999997
904,7.514087,0.4444,-0.5676,-1.135,55.75338863,48.73993977,1.02999997
905,7.516135,0.4444,-0.5676,-1.135,55.75338863,48.73993977,1.02999997
906,7.518942,0.4444,-0.5676,-1.135,55.75338863,48.73993977,1.02999997
907,7.536315,0.4444,-0.5676,-1.135,55.75338863,48.73993977,1.02999997
908,7.54123,0.3966,0.3029,-2.7863,55.75338863,48.73993977,1.02999997
909,7.544676,0.3966,0.3029,-2.7863,55.75338863,48.73993977,1.02999997
910,7.554699,0.3966,0.3029,-2.7863,55.75338863,48.73993977,1.02999997
911,7.569275,0.3966,0.3029,-2.7863,55.75338863,48.73993977,1.02999997
912,7.572787,0.3966,0.3029,-2.7863,55.75338217,48.73996048,1.28999996
913,7.577306,0.3966,0.3029,-2.7863,55.75338217,48.73996048,1.28999996
914,7.584797,0.3966,0.3029,-2.7863,55.75338217,48.73996048,1.28999996
915,7.606029,0.5382,-0.108,-0.3286,55.75338217,48.73996048,1.28999996
916,7.607855,0.5382,-0.108,-0.3286,55.75338217,48.73996048,1.28999996
917,7.60906,0.5382,-0.108,-0.3286,55.75338217,48.73996048,1.28999996
918,7.610204,0.5382,-0.108,-0.3286,55.75338217,48.73996048,1.28999996
919,7.630686,0.5382,-0.108,-0.3286,55.75338217,48.73996048,1.28999996
920,7.634163,0.5382,-0.108,-0.3286,55.75338217,48.73996048,1.28999996
921,7.646017,0.5382,-0.108,-0.3286,55.75338217,48.73996048,1.28999996
922,7.648717,0.5382,-0.108,-0.3286,55.75338217,48.73996048,1.28999996
923,7.665739,0.5382,-0.108,-0.3286,55.75338217,48.73996048,1.28999996
924,7.669797,0.5382,-0.108,-0.3286,55.75338217,48.73996048,1.28999996
925,7.6728,0.0577,0.5172,1.3667,55.75338217,48.73996048,1.28999996
926,7.675458,0.0577,0.5172,1.3667,55.75338217,48.73996048,1.28999996
927,7.68889,0.0577,0.5172,1.3667,55.75338217,48.73996048,1.28999996
928,7.710671,0.0577,0.5172,1.3667,55.75338217,48.73996048,1.28999996
929,7.71448,0.0577,0.5172,1.3667,55.75338217,48.73996048,1.28999996
930,7.716581,0.0577,0.5172,1.3667,55.75338217,48.73996048,1.28999996
931,7.718817,0.0577,0.5172,1.3667,55.75338217,48.73996048,1.28999996
932,7.736082,0.0577,0.5172,1.3667,55.75338217,48.73996048,1.28999996
933,7.74018,0.3824,1.4521,1.2832,55.75338217,48.73996048,1.28999996
934,7.742987,0.3824,1.4521,1.2832,55.75338217,48.73996048,1.28999996
935,7.749291,0.3824,1.4521,1.2832,55.75338217,48.73996048,1.28999996
936,7.769263,0.3824,1.4521,1.2832,55.75338217,48.73996048,1.28999996
937,7.773046,0.3824,1.4521,1.2832,55.75338217,48.73996048,1.28999996
938,7.777465,0.3824,1.4521,1.2832,55.75338217,48.73996048,1.28999996
939,7.78896,0.3824,1.4521,1.2832,55.75338217,48.73996048,1.28999996
940,7.793433,0.3824,1.4521,1.2832,55.75338217,48.73996048,1.28999996
941,7.806447,0.3824,1.4521,1.2832,55.75338217,48.73996048,1.28999996
942,7.809715,-0.174,0.154,2.646,55.75338217,48.73996048,1.28999996
943,7.811967,-0.174,0.154,2.646,55.75338217,48.73996048,1.28999996
944,7.829924,-0.174,0.154,2.646,55.75338217,48.73996048,1.28999996
945,7.834615,-0.174,0.154,2.646,55.75338217,48.73996048,1.28999996
946,7.845379,-0.174,0.154,2.646,55.75338217,48.73996048,1.28999996
947,7.868385,-0.174,0.154,2.646,55.75338217,48.73996048,1.28999996
948,7.874795,-0.174,0.154,2.646,55.75338217,48.73996048,1.28999996
949,7.881952,-0.174,0.154,2.646,55.75338217,48.73996048,1.28999996
950,7.886795,-0.8455,-0.263,-0.4988,55.75338217,48.73996048,1.28999996
951,7.890613,-0.8455,-0.263,-0.4988,55.75338217,48.73996048,1.28999996
952,7.894751,-0.8455,-0.263,-0.4988,55.75338217,48.73996048,1.28999996
953,7.912608,-0.8455,-0.263,-0.4988,55.75338217,48.73996048,1.28999996
954,7.917025,-0.8455,-0.263,-0.4988,55.75338217,48.73996048,1.28999996
955,7.920765,-0.8455,-0.263,-0.4988,55.75338217,48.73996048,1.28999996
956,7.936636,-0.8455,-0.263,-0.4988,55.75338217,48.73996048,1.28999996
957,7.9467,-0.3047,-1.2868,-0.9159,55.75338217,48.73996048,1.28999996
958,7.950871,-0.3047,-1.2868,-0.9159,55.75338217,48.73996048,1.28999996
959,7.953585,-0.3047,-1.2868,-0.9159,55.75338217,48.73996048,1.28999996
960,7.956296,-0.3047,-1.2868,-0.9159,55.75338217,48.73996048,1.28999996
961,7.969816,-0.3047,-1.2868,-0.9159,55.75338217,48.73996048,1.28999996
962,7.975325,-0.3047,-1.2868,-0.9159,55.75338217,48.73996048,1.28999996
963,7.978255,-0.3047,-1.2868,-0.9159,55.75338217,48.73996048,1.28999996
964,7.989711,-0.3047,-1.2868,-0.9159,55.75338217,48.73996048,1.28999996
965,8.008592,-0.3047,-1.2868,-0.9159,55.75338217,48.73996048,1.28999996
966,8.014836,-0.3047,-1.2868,-0.9159,55.75338217,48.73996048,1.28999996
967,8.028227,-0.3047,-1.2868,-0.9159,55.75338217,48.73996048,1.28999996
968,8.034923,-0.3047,-1.2868,-0.9159,55.75338217,48.73996048,1.28999996
969,8.038275,-0.0567,-1.9141,-1.5087,55.75338217,48.73996048,1.28999996
970,8.041301,-0.0567,-1.9141,-1.5087,55.75338217,48.73996048,1.28999996
971,8.04458,-0.0567,-1.9141,-1.5087,55.75338217,48.73996048,1.28999996
972,8.056714,-0.0567,-1.9141,-1.5087,55.75338217,48.73996048,1.28999996
973,8.067363,-0.0567,-1.9141,-1.5087,55.75338217,48.73996048,1.28999996
974,8.070282,-0.0567,-1.9141,-1.5087,55.75338217,48.73996048,1.28999996
975,8.089478,-0.0567,-1.9141,-1.5087,55.75338217,48.73996048,1.28999996
976,8.100987,-0.0567,-1.9141,-1.5087,55.75338217,48.73996048,1.28999996
977,8.105266,-0.0476,-1.3684,-1.926,55.75338217,48.73996048,1.28999996
978,8.108117,-0.0476,-1.3684,-1.926,55.75338217,48.73996048,1.28999996
979,8.110973,-0.0476,-1.3684,-1.926,55.75338217,48.73996048,1.28999996
980,8.118118,-0.0476,-1.3684,-1.926,55.75338217,48.73996048,1.28999996
981,8.137129,-0.0476,-1.3684,-1.926,55.75338217,48.73996048,1.28999996
982,8.141289,-0.0476,-1.3684,-1.926,55.75338217,48.73996048,1.28999996
983,8.157668,1.0462,-0.043,-1.2695,55.75338217,48.73996048,1.28999996
984,8.161477,1.0462,-0.043,-1.2695,55.75338217,48.73996048,1.28999996
985,8.163881,1.0462,-0.043,-1.2695,55.75338217,48.73996048,1.28999996
986,8.170918,1.0462,-0.043,-1.2695,55.75338217,48.73996048,1.28999996
987,8.178264,1.0462,-0.043,-1.2695,55.75338217,48.73996048,1.28999996
988,8.181475,1.0462,-0.043,-1.2695,55.75338217,48.73996048,1.28999996
989,8.213973,1.0462,-0.043,-1.2695,55.75338217,48.73996048,1.28999996
990,8.219661,1.0462,-0.043,-1.2695,55.75338217,48.73996048,1.28999996
991,8.222144,1.0462,-0.043,-1.2695,55.75338217,48.73996048,1.28999996
992,8.229675,1.0462,-0.043,-1.2695,55.75338217,48.73996048,1.28999996
993,8.23809,0.1133,0.8982,0.7431,55.75338217,48.73996048,1.28999996
994,8.243447,0.1133,0.8982,0.7431,55.75338217,48.73996048,1.28999996
995,8.246927,0.1133,0.8982,0.7431,55.75338217,48.73996048,1.28999996
996,8.250258,0.1133,0.8982,0.7431,55.75338217,48.73996048,1.28999996
997,8.278965,0.1133,0.8982,0.7431,55.75338217,48.73996048,1.28999996
998,8.282993,0.1133,0.8982,0.7431,55.75338217,48.73996048,1.28999996
999,8.286803,0.1133,0.8982,0.7431,55.75338217,48.73996048,1.28999996
1000,8.289705,0.1133,0.8982,0.7431,55.75338217,48.73996048,1.28999996
1001,8.300306,0.1133,0.8982,0.7431,55.75338217,48.73996048,1.28999996
1002,8.304563,0.1133,0.8982,0.7431,55.75338217,48.73996048,1.28999996
1003,8.30702,1.5008,2.8242,2.8015,55.75338217,48.73996048,1.28999996
1004,8.311281,1.5008,2.8242,2.8015,55.75338217,48.73996048,1.28999996
1005,8.319108,1.5008,2.8242,2.8015,55.75338217,48.73996048,1.28999996
1006,8.346317,1.5008,2.8242,2.8015,55.75338217,48.73996048,1.28999996
1007,8.358541,1.5008,2.8242,2.8015,55.75338217,48.73996048,1.28999996
1008,8.369634,1.5008,2.8242,2.8015,55.75338217,48.73996048,1.28999996
1009,8.375279,1.5008,2.8242,2.8015,55.75338217,48.73996048,1.28999996
1010,8.378773,1.5008,2.8242,2.8015,55.75338217,48.73996048,1.28999996
1011,8.382054,1.5008,2.8242,2.8015,55.75338217,48.73996048,1.28999996
1012,8.384619,1.5008,2.8242,2.8015,55.75338217,48.73996048,1.28999996
1013,8.387073,0.7085,0.5974,1.5972,55.75338217,48.73996048,1.28999996
1014,8.414194,0.7085,0.5974,1.5972,55.75338217,48.73996048,1.28999996
1015,8.419846,0.7085,0.5974,1.5972,55.75338217,48.73996048,1.28999996
1016,8.428339,0.7085,0.5974,1.5972,55.75338217,48.73996048,1.28999996
1017,8.43232,0.7085,0.5974,1.5972,55.75338217,48.73996048,1.28999996
1018,8.435141,0.7085,0.5974,1.5972,55.75338217,48.73996048,1.28999996
1019,8.445269,0.7085,0.5974,1.5972,55.75338217,48.73996048,1.28999996
1020,8.449849,0.2719,-1.081,0.1226,55.75338217,48.73996048,1.28999996
1021,8.453551,0.2719,-1.081,0.1226,55.75338217,48.73996048,1.28999996
1022,8.456383,0.2719,-1.081,0.1226,55.75338217,48.73996048,1.28999996
1023,8.470027,0.2719,-1.081,0.1226,55.75338217,48.73996048,1.28999996
1024,8.489207,0.2719,-1.081,0.1226,55.75338217,48.73996048,1.28999996
1025,8.49802,0.2719,-1.081,0.1226,55.75338217,48.73996048,1.28999996
1026,8.510471,0.2719,-1.081,0.1226,55.75338217,48.73996048,1.28999996
1027,8.511474,0.2719,-1.081,0.1226,55.75338217,48.73996048,1.28999996
1028,8.519049,0.2719,-1.081,0.1226,55.75338217,48.73996048,1.28999996
1029,8.520255,-0.1319,-1.645,-1.5682,55.75338217,48.73996048,1.28999996
1030,8.521099,-0.1319,-1.645,-1.5682,55.75338217,48.73996048,1.28999996
1031,8.54773,-0.1319,-1.645,-1.5682,55.75338217,48.73996048,1.28999996
1032,8.558395,-0.1319,-1.645,-1.5682,55.75338217,48.73996048,1.28999996
1033,8.559606,-0.1319,-1.645,-1.5682,55.75337641,48.73998033,1.12
1034,8.56906,-0.1319,-1.645,-1.5682,55.75337641,48.73998033,1.12
1035,8.577361,-0.1319,-1.645,-1.5682,55.75337641,48.73998033,1.12
1036,8.578715,-0.1152,-1.4541,-2.0244,55.75337641,48.73998033,1.12
1037,8.579995,-0.1152,-1.4541,-2.0244,55.75337641,48.73998033,1.12
1038,8.581077,-0.1152,-1.4541,-2.0244,55.75337641,48.73998033,1.12
1039,8.61316,-0.1152,-1.4541,-2.0244,55.75337641,48.73998033,1.12
1040,8.615373,-0.1152,-1.4541,-2.0244,55.75337641,48.73998033,1.12
1041,8.629111,-0.1152,-1.4541,-2.0244,55.75337641,48.73998033,1.12
1042,8.630652,-0.1152,-1.4541,-2.0244,55.75337641,48.73998033,1.12
1043,8.631825,-0.1152,-1.4541,-2.0244,55.75337641,48.73998033,1.12
1044,8.644275,-0.1152,-1.4541,-2.0244,55.75337641,48.73998033,1.12
1045,8.649928,-0.1152,-1.4541,-2.0244,55.75337641,48.73998033,1.12
1046,8.651216,-0.7549,-1.0939,-0.3463,55.75337641,48.73998033,1.12
1047,8.652464,-0.7549,-1.0939,-0.3463,55.75337641,48.73998033,1.12
1048,8.679941,-0.7549,-1.0939,-0.3463,55.75337641,48.73998033,1.12
1049,8.689004,-0.7549,-1.0939,-0.3463,55.75337641,48.73998033,1.12
1050,8.699116,-0.7549,-1.0939,-0.3463,55.75337641,48.73998033,1.12
1051,8.710814,-0.7549,-1.0939,-0.3463,55.75337641,48.73998033,1.12
1052,8.712341,-0.7549,-1.0939,-0.3463,55.75337641,48.73998033,1.12
1053,8.724337,-0.7549,-1.0939,-0.3463,55.75337641,48.73998033,1.12
1054,8.726473,-0.9981,0.6076,0.0475,55.75337641,48.73998033,1.12
1055,8.727631,-0.9981,0.6076,0.0475,55.75337641,48.73998033,1.12
1056,8.745537,-0.9981,0.6076,0.0475,55.75337641,48.73998033,1.12
1057,8.76877,-0.9981,0.6076,0.0475,55.75337641,48.73998033,1.12
1058,8.770548,-0.9981,0.6076,0.0475,55.75337641,48.73998033,1.12
1059,8.777193,-0.9981,0.6076,0.0475,55.75337641,48.73998033,1.12
1060,8.778554,-0.9981,0.6076,0.0475,55.75337641,48.73998033,1.12
1061,8.799992,-0.9981,0.6076,0.0475,55.75337641,48.73998033,1.12
1062,8.802004,-0.9981,0.6076,0.0475,55.75337641,48.73998033,1.12
1063,8.803112,-0.9981,0.6076,0.0475,55.75337641,48.73998033,1.12
1064,8.804327,-1.9301,0.8426,1.9859,55.75337641,48.73998033,1.12
1065,8.813216,-1.9301,0.8426,1.9859,55.75337641,48.73998033,1.12
1066,8.831418,-1.9301,0.8426,1.9859,55.75337641,48.73998033,1.12
1067,8.843861,-1.9301,0.8426,1.9859,55.75337641,48.73998033,1.12
1068,8.84522,-1.9301,0.8426,1.9859,55.75337641,48.73998033,1.12
1069,8.849673,-1.9301,0.8426,1.9859,55.75337641,48.73998033,1.12
1070,8.872079,-1.9301,0.8426,1.9859,55.75337641,48.73998033,1.12
1071,8.874406,0.154,1.5211,0.3072,55.75337641,48.73998033,1.12
1072,8.87576,0.154,1.5211,0.3072,55.75337641,48.73998033,1.12
1073,8.877073,0.154,1.5211,0.3072,55.75337641,48.73998033,1.12
1074,8.889327,0.154,1.5211,0.3072,55.75337641,48.73998033,1.12
1075,8.910951,0.154,1.5211,0.3072,55.75337641,48.73998033,1.12
1076,8.912647,0.154,1.5211,0.3072,55.75337641,48.73998033,1.12
1077,8.9203,0.154,1.5211,0.3072,55.75337641,48.73998033,1.12
1078,8.921835,0.154,1.5211,0.3072,55.75337641,48.73998033,1.12
1079,8.940572,0.154,1.5211,0.3072,55.75337641,48.73998033,1.12
1080,8.941882,-0.5241,-0.6661,0.1532,55.75337641,48.73998033,1.12
1081,8.943188,-0.5241,-0.6661,0.1532,55.75337641,48.73998033,1.12
1082,8.969208,-0.5241,-0.6661,0.1532,55.75337641,48.73998033,1.12
1083,8.971357,-0.5241,-0.6661,0.1532,55.75337641,48.73998033,1.12
1084,8.973199,-0.5241,-0.6661,0.1532,55.75337641,48.73998033,1.12
1085,8.977175,-0.5241,-0.6661,0.1532,55.75337641,48.73998033,1.12
1086,8.990506,-0.5241,-0.6661,0.1532,55.75337641,48.73998033,1.12
1087,9.012949,-0.5241,-0.6661,0.1532,55.75337641,48.73998033,1.12
1088,9.015179,-0.5241,-0.6661,0.1532,55.75337641,48.73998033,1.12
1089,9.016356,-1.2801,-2.1952,-2.9537,55.75337641,48.73998033,1.12
1090,9.017553,-1.2801,-2.1952,-2.9537,55.75337641,48.73998033,1.12
1091,9.031513,-1.2801,-2.1952,-2.9537,55.75337641,48.73998033,1.12
1092,9.044243,-1.2801,-2.1952,-2.9537,55.75337641,48.73998033,1.12
1093,9.045639,-1.2801,-2.1952,-2.9537,55.75337641,48.73998033,1.12
1094,9.051389,-1.2801,-2.1952,-2.9537,55.75337641,48.73998033,1.12
1095,9.053005,-1.2801,-2.1952,-2.9537,55.75337641,48.73998033,1.12
1096,9.071543,1.1443,-1.1475,-1.5865,55.75337641,48.73998033,1.12
1097,9.073749,1.1443,-1.1475,-1.5865,55.75337641,48.73998033,1.12
1098,9.075014,1.1443,-1.1475,-1.5865,55.75337641,48.73998033,1.12
1099,9.089529,1.1443,-1.1475,-1.5865,55.75337641,48.73998033,1.12
1100,9.111952,1.1443,-1.1475,-1.5865,55.75337641,48.73998033,1.12
1101,9.114216,1.1443,-1.1475,-1.5865,55.75337641,48.73998033,1.12
1102,9.130788,1.1443,-1.1475,-1.5865,55.75337641,48.73998033,1.12
1103,9.132982,1.1443,-1.1475,-1.5865,55.75337641,48.73998033,1.12
1104,9.13416,1.1443,-1.1475,-1.5865,55.75337641,48.73998033,1.12
1105,9.146422,1.1443,-1.1475,-1.5865,55.75337641,48.73998033,1.12
1106,9.148162,1.0991,0.0874,-0.8104,55.75337641,48.73998033,1.12
1107,9.169001,1.0991,0.0874,-0.8104,55.75337641,48.73998033,1.12
1108,9.170896,1.0991,0.0874,-0.8104,55.75337641,48.73998033,1.12
1109,9.177093,1.0991,0.0874,-0.8104,55.75337641,48.73998033,1.12
1110,9.201208,1.0991,0.0874,-0.8104,55.75337641,48.73998033,1.12
1111,9.20333,1.0991,0.0874,-0.8104,55.75337641,48.73998033,1.12
1112,9.213222,1.0991,0.0874,-0.8104,55.75337641,48.73998033,1.12
1113,9.215164,0.3019,0.7436,2.5952,55.75337641,48.73998033,1.12
1114,9.21639,0.3019,0.7436,2.5952,55.75337641,48.73998033,1.12
1115,9.217431,0.3019,0.7436,2.5952,55.75337641,48.73998033,1.12
1116,9.22939,0.3019,0.7436,2.5952,55.75337641,48.73998033,1.12
1117,9.2441,0.3019,0.7436,2.5952,55.75337641,48.73998033,1.12
1118,9.245841,0.3019,0.7436,2.5952,55.75337641,48.73998033,1.12
1119,9.261335,0.3019,0.7436,2.5952,55.75337641,48.73998033,1.12
1120,9.262987,0.3019,0.7436,2.5952,55.75337641,48.73998033,1.12
1121,9.2797,0.3019,0.7436,2.5952,55.75337641,48.73998033,1.12
1122,9.288361,0.3019,0.7436,2.5952,55.75337641,48.73998033,1.12
1123,9.291732,0.3019,0.7436,2.5952,55.75337641,48.73998033,1.12
1124,9.292725,0.3019,0.7436,2.5952,55.75337641,48.73998033,1.12
1125,9.293561,1.3171,1.8749,1.9676,55.75337641,48.73998033,1.12
1126,9.311249,1.3171,1.8749,1.9676,55.75337641,48.73998033,1.12
1127,9.332253,1.3171,1.8749,1.9676,55.75337641,48.73998033,1.12
1128,9.334025,1.3171,1.8749,1.9676,55.75337641,48.73998033,1.12
1129,9.335022,1.3171,1.8749,1.9676,55.75337641,48.73998033,1.12
1130,9.36255,1.3171,1.8749,1.9676,55.75337641,48.73998033,1.12
1131,9.365105,1.3171,1.8749,1.9676,55.75337641,48.73998033,1.12
1132,9.366349,0.8351,0.8444,2.3072,55.75337641,48.73998033,1.12
1133,9.368945,0.8351,0.8444,2.3072,55.75337641,48.73998033,1.12
1134,9.377252,0.8351,0.8444,2.3072,55.75337641,48.73998033,1.12
1135,9.402165,0.8351,0.8444,2.3072,55.75337641,48.73998033,1.12
1136,9.404764,0.8351,0.8444,2.3072,55.75337641,48.73998033,1.12
1137,9.413147,0.8351,0.8444,2.3072,55.75337641,48.73998033,1.12
1138,9.415357,0.8351,0.8444,2.3072,55.75337641,48.73998033,1.12
1139,9.429292,0.8351,0.8444,2.3072,55.75337641,48.73998033,1.12
1140,9.432827,0.8351,0.8444,2.3072,55.75337641,48.73998033,1.12
1141,9.4352,0.8351,0.8444,2.3072,55.75337641,48.73998033,1.12
1142,9.436566,1.1107,-1.065,0.5221,55.75337641,48.73998033,1.12
1143,9.444015,1.1107,-1.065,0.5221,55.75337641,48.73998033,1.12
1144,9.47342,1.1107,-1.065,0.5221,55.75337641,48.73998033,1.12
1145,9.475716,1.1107,-1.065,0.5221,55.75337641,48.73998033,1.12
1146,9.477022,1.1107,-1.065,0.5221,55.75337641,48.73998033,1.12
1147,9.489034,1.1107,-1.065,0.5221,55.75337641,48.73998033,1.12
1148,9.492807,1.1107,-1.065,0.5221,55.75337641,48.73998033,1.12
1149,9.49414,-0.6791,-1.3912,-1.8196,55.75337641,48.73998033,1.12
1150,9.494988,-0.6791,-1.3912,-1.8196,55.75337641,48.73998033,1.12
1151,9.517602,-0.6791,-1.3912,-1.8196,55.75337641,48.73998033,1.12
1152,9.533374,-0.6791,-1.3912,-1.8196,55.75337641,48.73998033,1.12
1153,9.536265,-0.6791,-1.3912,-1.8196,55.75337102,48.74000401,1.32000005
1154,9.546514,-0.6791,-1.3912,-1.8196,55.75337102,48.74000401,1.32000005
1155,9.568828,-0.6791,-1.3912,-1.8196,55.75337102,48.74000401,1.32000005
1156,9.574913,-0.4496,-1.0135,-2.6726,55.75337102,48.74000401,1.32000005
1157,9.579253,-0.4496,-1.0135,-2.6726,55.75337102,48.74000401,1.32000005
1158,9.583406,-0.4496,-1.0135,-2.6726,55.75337102,48.74000401,1.32000005
1159,9.586677,-0.4496,-1.0135,-2.6726,55.75337102,48.74000401,1.32000005
1160,9.614018,-0.4496,-1.0135,-2.6726,55.75337102,48.74000401,1.32000005
1161,9.619323,-0.4496,-1.0135,-2.6726,55.75337102,48.74000401,1.32000005
1162,9.622312,-0.4496,-1.0135,-2.6726,55.75337102,48.74000401,1.32000005
1163,9.625201,-0.4496,-1.0135,-2.6726,55.75337102,48.74000401,1.32000005
1164,9.629465,-0.4496,-1.0135,-2.6726,55.75337102,48.74000401,1.32000005
1165,9.637317,-0.0511,-0.8793,-1.1731,55.75337102,48.74000401,1.32000005
1166,9.641915,-0.0511,-0.8793,-1.1731,55.75337102,48.74000401,1.32000005
1167,9.645172,-0.0511,-0.8793,-1.1731,55.75337102,48.74000401,1.32000005
1168,9.647851,-0.0511,-0.8793,-1.1731,55.75337102,48.74000401,1.32000005
1169,9.680699,-0.0511,-0.8793,-1.1731,55.75337102,48.74000401,1.32000005
1170,9.688357,-0.0511,-0.8793,-1.1731,55.75337102,48.74000401,1.32000005
1171,9.691442,-0.0511,-0.8793,-1.1731,55.75337102,48.74000401,1.32000005
1172,9.695369,-0.0511,-0.8793,-1.1731,55.75337102,48.74000401,1.32000005
1173,9.711022,-0.0511,-0.8793,-1.1731,55.75337102,48.74000401,1.32000005
1174,9.716262,-0.0511,-0.8793,-1.1731,55.75337102,48.74000401,1.32000005
1175,9.718833,-0.295,0.4735,0.5808,55.75337102,48.74000401,1.32000005
1176,9.721863,-0.295,0.4735,0.5808,55.75337102,48.74000401,1.32000005
1177,9.724662,-0.295,0.4735,0.5808,55.75337102,48.74000401,1.32000005
1178,9.746123,-0.295,0.4735,0.5808,55.75337102,48.74000401,1.32000005
1179,9.768531,-0.295,0.4735,0.5808,55.75337102,48.74000401,1.32000005
1180,9.778282,-0.295,0.4735,0.5808,55.75337102,48.74000401,1.32000005
1181,9.781772,-0.295,0.4735,0.5808,55.75337102,48.74000401,1.32000005
1182,9.784588,-0.295,0.4735,0.5808,55.75337102,48.74000401,1.32000005
1183,9.787053,-0.295,0.4735,0.5808,55.75337102,48.74000401,1.32000005
1184,9.789654,-0.295,0.4735,0.5808,55.75337102,48.74000401,1.32000005
1185,9.791832,0.1261,2.1546,3.0338,55.75337102,48.74000401,1.32000005
1186,9.813573,0.1261,2.1546,3.0338,55.75337102,48.74000401,1.32000005
1187,9.825386,0.1261,2.1546,3.0338,55.75337102,48.74000401,1.32000005
1188,9.829757,0.1261,2.1546,3.0338,55.75337102,48.74000401,1.32000005
1189,9.833784,0.1261,2.1546,3.0338,55.75337102,48.74000401,1.32000005
1190,9.846485,0.1261,2.1546,3.0338,55.75337102,48.74000401,1.32000005
1191,9.852375,0.1261,2.1546,3.0338,55.75337102,48.74000401,1.32000005
1192,9.855862,-0.8432,0.1685,2.659,55.75337102,48.74000401,1.32000005
1193,9.859201,-0.8432,0.1685,2.659,55.75337102,48.74000401,1.32000005
1194,9.866667,-0.8432,0.1685,2.659,55.75337102,48.74000401,1.32000005
1195,9.880167,-0.8432,0.1685,2.659,55.75337102,48.74000401,1.32000005
1196,9.889228,-0.8432,0.1685,2.659,55.75337102,48.74000401,1.32000005
1197,9.89464,-0.8432,0.1685,2.659,55.75337102,48.74000401,1.32000005
1198,9.898047,-0.8432,0.1685,2.659,55.75337102,48.74000401,1.32000005
1199,9.912473,-0.8432,0.1685,2.659,55.75337102,48.74000401,1.32000005
1200,9.915992,-0.8432,0.1685,2.659,55.75337102,48.74000401,1.32000005
1201,9.918359,-0.4844,-0.1297,0.6524,55.75337102,48.74000401,1.32000005
1202,9.920823,-0.4844,-0.1297,0.6524,55.75337102,48.74000401,1.32000005
1203,9.936399,-0.4844,-0.1297,0.6524,55.75337102,48.74000401,1.32000005
1204,9.965862,-0.4844,-0.1297,0.6524,55.75337102,48.74000401,1.32000005
1205,9.973349,-0.4844,-0.1297,0.6524,55.75337102,48.74000401,1.32000005
1206,9.977873,-0.4844,-0.1297,0.6524,55.75337102,48.74000401,1.32000005
1207,9.982166,-0.4844,-0.1297,0.6524,55.75337102,48.74000401,1.32000005
1208,9.985587,-0.4844,-0.1297,0.6524,55.75337102,48.74000401,1.32000005
1209,9.989011,0.2259,-0.1671,-2.5827,55.75337102,48.74000401,1.32000005
1210,9.992576,0.2259,-0.1671,-2.5827,55.75337102,48.74000401,1.32000005
1211,10.013685,0.2259,-0.1671,-2.5827,55.75337102,48.74000401,1.32000005
1212,10.030641,0.2259,-0.1671,-2.5827,55.75337102,48.74000401,1.32000005
1213,10.03719,0.2259,-0.1671,-2.5827,55.75337102,48.74000401,1.32000005
1214,10.046833,0.2259,-0.1671,-2.5827,55.75337102,48.74000401,1.32000005
1215,10.052574,0.2259,-0.1671,-2.5827,55.75337102,48.74000401,1.32000005
1216,10.056971,0.2259,-0.1671,-2.5827,55.75337102,48.74000401,1.32000005
1217,10.067546,0.2259,-0.1671,-2.5827,55.75337102,48.74000401,1.32000005
1218,10.071989,0.7655,-1.3356,-2.9858,55.75337102,48.74000401,1.32000005
1219,10.07474,0.7655,-1.3356,-2.9858,55.75337102,48.74000401,1.32000005
1220,10.081781,0.7655,-1.3356,-2.9858,55.75337102,48.74000401,1.32000005
1221,10.089379,0.7655,-1.3356,-2.9858,55.75337102,48.74000401,1.32000005
1222,10.111489,0.7655,-1.3356,-2.9858,55.75337102,48.74000401,1.32000005
1223,10.116663,0.7655,-1.3356,-2.9858,55.75337102,48.74000401,1.32000005
1224,10.119518,0.7655,-1.3356,-2.9858,55.75337102,48.74000401,1.32000005
1225,10.136708,0.7655,-1.3356,-2.9858,55.75337102,48.74000401,1.32000005
1226,10.142602,0.7655,-1.3356,-2.9858,55.75337102,48.74000401,1.32000005
1227,10.145974,0.7655,-1.3356,-2.9858,55.75337102,48.74000401,1.32000005
1228,10.149129,0.0006,-0.772,-2.6701,55.75337102,48.74000401,1.32000005
1229,10.170495,0.0006,-0.772,-2.6701,55.75337102,48.74000401,1.32000005
1230,10.178462,0.0006,-0.772,-2.6701,55.75337102,48.74000401,1.32000005
1231,10.182875,0.0006,-0.772,-2.6701,55.75337102,48.74000401,1.32000005
1232,10.186846,0.0006,-0.772,-2.6701,55.75337102,48.74000401,1.32000005
1233,10.20614,-0.6423,1.037,-0.8171,55.75337102,48.74000401,1.32000005
1234,10.212091,-0.6423,1.037,-0.8171,55.75337102,48.74000401,1.32000005
1235,10.215018,-0.6423,1.037,-0.8171,55.75337102,48.74000401,1.32000005
1236,10.218028,-0.6423,1.037,-0.8171,55.75337102,48.74000401,1.32000005
1237,10.223769,-0.6423,1.037,-0.8171,55.75337102,48.74000401,1.32000005
1238,10.229373,-0.6423,1.037,-0.8171,55.75337102,48.74000401,1.32000005
1239,10.245031,-0.6423,1.037,-0.8171,55.75337102,48.74000401,1.32000005
1240,10.248909,-0.6423,1.037,-0.8171,55.75337102,48.74000401,1.32000005
1241,10.25809,-0.6423,1.037,-0.8171,55.75337102,48.74000401,1.32000005
1242,10.279496,-1.3764,0.6143,4.1418,55.75337102,48.74000401,1.32000005
1243,10.284893,-1.3764,0.6143,4.1418,55.75337102,48.74000401,1.32000005
1244,10.2874,-1.3764,0.6143,4.1418,55.75337102,48.74000401,1.32000005
1245,10.289848,-1.3764,0.6143,4.1418,55.75337102,48.74000401,1.32000005
1246,10.292425,-1.3764,0.6143,4.1418,55.75337102,48.74000401,1.32000005
1247,10.310984,-1.3764,0.6143,4.1418,55.75337102,48.74000401,1.32000005
1248,10.315643,-1.3764,0.6143,4.1418,55.75337102,48.74000401,1.32000005
1249,10.319481,-1.3764,0.6143,4.1418,55.75337102,48.74000401,1.32000005
1250,10.337108,-1.3764,0.6143,4.1418,55.75337102,48.74000401,1.32000005
1251,10.341441,-1.3764,0.6143,4.1418,55.75337102,48.74000401,1.32000005
1252,10.343893,-1.3764,0.6143,4.1418,55.75337102,48.74000401,1.32000005
1253,10.346638,1.0775,0.8991,3.7694,55.75337102,48.74000401,1.32000005
1254,10.369554,1.0775,0.8991,3.7694,55.75337102,48.74000401,1.32000005
1255,10.373577,1.0775,0.8991,3.7694,55.75337102,48.74000401,1.32000005
1256,10.377657,1.0775,0.8991,3.7694,55.75337102,48.74000401,1.32000005
1257,10.39032,1.0775,0.8991,3.7694,55.75337102,48.74000401,1.32000005
1258,10.407054,1.0775,0.8991,3.7694,55.75337102,48.74000401,1.32000005
1259,10.410647,1.0775,0.8991,3.7694,55.75337102,48.74000401,1.32000005
1260,10.413666,0.703,-0.2813,1.5828,55.75337102,48.74000401,1.32000005
1261,10.41668,0.703,-0.2813,1.5828,55.75337102,48.74000401,1.32000005
1262,10.429618,0.703,-0.2813,1.5828,55.75337102,48.74000401,1.32000005
1263,10.434089,0.703,-0.2813,1.5828,55.75337102,48.74000401,1.32000005
1264,10.445148,0.703,-0.2813,1.5828,55.75337102,48.74000401,1.32000005
1265,10.466848,0.703,-0.2813,1.5828,55.75337102,48.74000401,1.32000005
1266,10.470793,0.703,-0.2813,1.5828,55.75337102,48.74000401,1.32000005
1267,10.480931,0.703,-0.2813,1.5828,55.75337102,48.74000401,1.32000005
1268,10.485498,0.703,-0.2813,1.5828,55.75337102,48.74000401,1.32000005
1269,10.488208,0.7412,-1.4774,-0.462,55.75337102,48.74000401,1.32000005
1270,10.490454,0.7412,-1.4774,-0.462,55.75337102,48.74000401,1.32000005
1271,10.492908,0.7412,-1.4774,-0.462,55.75337102,48.74000401,1.32000005
1272,10.511061,0.7412,-1.4774,-0.462,55.75337102,48.74000401,1.32000005
1273,10.51504,0.7412,-1.4774,-0.462,55.75337102,48.74000401,1.32000005
1274,10.537428,0.7412,-1.4774,-0.462,55.75337102,48.74000401,1.32000005
1275,10.54577,0.7412,-1.4774,-0.462,55.75337102,48.74000401,1.32000005
1276,10.549058,0.7412,-1.4774,-0.462,55.75337102,48.74000401,1.32000005
1277,10.559175,0.7412,-1.4774,-0.462,55.75337102,48.74000401,1.32000005
1278,10.562785,0.7412,-1.4774,-0.462,55.75337102,48.74000401,1.32000005
1279,10.565323,0.4878,-1.7616,-1.6211,55.75337102,48.74000401,1.32000005
1280,10.573404,0.4878,-1.7616,-1.6211,55.75337102,48.74000401,1.32000005
1281,10.577626,0.4878,-1.7616,-1.6211,55.75336498,48.74002659,1.24000001
1282,10.579691,0.4878,-1.7616,-1.6211,55.75336498,48.74002659,1.24000001
1283,10.597645,0.4878,-1.7616,-1.6211,55.75336498,48.74002659,1.24000001
1284,10.599891,0.4878,-1.7616,-1.6211,55.75336498,48.74002659,1.24000001
1285,10.628982,0.4878,-1.7616,-1.6211,55.75336498,48.74002659,1.24000001
1286,10.632286,0.3723,-2.5677,-1.0473,55.75336498,48.74002659,1.24000001
1287,10.634555,0.3723,-2.5677,-1.0473,55.75336498,48.74002659,1.24000001
1288,10.636793,0.3723,-2.5677,-1.0473,55.75336498,48.74002659,1.24000001
1289,10.645168,0.3723,-2.5677,-1.0473,55.75336498,48.74002659,1.24000001
1290,10.66813,0.3723,-2.5677,-1.0473,55.75336498,48.74002659,1.24000001
1291,10.672695,0.3723,-2.5677,-1.0473,55.75336498,48.74002659,1.24000001
1292,10.67555,0.3723,-2.5677,-1.0473,55.75336498,48.74002659,1.24000001
1293,10.681739,0.3723,-2.5677,-1.0473,55.75336498,48.74002659,1.24000001
1294,10.688896,0.3723,-2.5677,-1.0473,55.75336498,48.74002659,1.24000001
1295,10.701361,0.3723,-2.5677,-1.0473,55.75336498,48.74002659,1.24000001
1296,10.705296,-0.4348,-1.4688,0.1504,55.75336498,48.74002659,1.24000001
1297,10.707812,-0.4348,-1.4688,0.1504,55.75336498,48.74002659,1.24000001
1298,10.710812,-0.4348,-1.4688,0.1504,55.75336498,48.74002659,1.24000001
1299,10.724252,-0.4348,-1.4688,0.1504,55.75336498,48.74002659,1.24000001
1300,10.737854,-0.4348,-1.4688,0.1504,55.75336498,48.74002659,1.24000001
1301,10.741487,-0.4348,-1.4688,0.1504,55.75336498,48.74002659,1.24000001
1302,10.758077,-0.4348,-1.4688,0.1504,55.75336498,48.74002659,1.24000001
1303,10.761923,-0.0778,0.9802,1.1516,55.75336498,48.74002659,1.24000001
1304,10.764483,-0.0778,0.9802,1.1516,55.75336498,48.74002659,1.24000001
1305,10.769673,-0.0778,0.9802,1.1516,55.75336498,48.74002659,1.24000001
1306,10.778272,-0.0778,0.9802,1.1516,55.75336498,48.74002659,1.24000001
1307,10.813843,-0.0778,0.9802,1.1516,55.75336498,48.74002659,1.24000001
1308,10.818753,-0.0778,0.9802,1.1516,55.75336498,48.74002659,1.24000001
1309,10.821735,-0.0778,0.9802,1.1516,55.75336498,48.74002659,1.24000001
1310,10.830084,-0.0778,0.9802,1.1516,55.75336498,48.74002659,1.24000001
1311,10.834471,0.1902,2.0673,1.8248,55.75336498,48.74002659,1.24000001
1312,10.839154,0.1902,2.0673,1.8248,55.75336498,48.74002659,1.24000001
1313,10.843306,0.1902,2.0673,1.8248,55.75336498,48.74002659,1.24000001
1314,10.848388,0.1902,2.0673,1.8248,55.75336498,48.74002659,1.24000001
1315,10.881639,0.1902,2.0673,1.8248,55.75336498,48.74002659,1.24000001
1316,10.888772,0.1902,2.0673,1.8248,55.75336498,48.74002659,1.24000001
1317,10.893696,0.1902,2.0673,1.8248,55.75336498,48.74002659,1.24000001
1318,10.899056,0.1902,2.0673,1.8248,55.75336498,48.74002659,1.24000001
1319,10.904802,0.1902,2.0673,1.8248,55.75336498,48.74002659,1.24000001
1320,10.908586,0.1902,2.0673,1.8248,55.75336498,48.74002659,1.24000001
1321,10.911155,-0.8781,2.0158,0.1914,55.75336498,48.74002659,1.24000001
1322,10.914372,-0.8781,2.0158,0.1914,55.75336498,48.74002659,1.24000001
1323,10.917736,-0.8781,2.0158,0.1914,55.75336498,48.74002659,1.24000001
1324,10.939551,-0.8781,2.0158,0.1914,55.75336498,48.74002659,1.24000001
1325,10.943381,-0.8781,2.0158,0.1914,55.75336498,48.74002659,1.24000001
1326,10.959552,-0.8781,2.0158,0.1914,55.75336498,48.74002659,1.24000001
1327,10.971065,-0.8781,2.0158,0.1914,55.75336498,48.74002659,1.24000001
1328,10.978456,-0.8781,2.0158,0.1914,55.75336498,48.74002659,1.24000001
1329,10.982916,-0.2926,-0.1986,-0.4858,55.75336498,48.74002659,1.24000001
1330,10.987946,-0.2926,-0.1986,-0.4858,55.75336498,48.74002659,1.24000001
1331,10.993147,-0.2926,-0.1986,-0.4858,55.75336498,48.74002659,1.24000001
1332,10.996199,-0.2926,-0.1986,-0.4858,55.75336498,48.74002659,1.24000001
1333,11.012284,-0.2926,-0.1986,-0.4858,55.75336498,48.74002659,1.24000001
1334,11.028968,-0.2926,-0.1986,-0.4858,55.75336498,48.74002659,1.24000001
1335,11.030336,-0.2926,-0.1986,-0.4858,55.75336498,48.74002659,1.24000001
1336,11.031624,-0.2926,-0.1986,-0.4858,55.75336498,48.74002659,1.24000001
1337,11.044025,-0.2926,-0.1986,-0.4858,55.75336498,48.74002659,1.24000001
1338,11.049618,-0.2926,-0.1986,-0.4858,55.75336498,48.74002659,1.24000001
1339,11.051031,-0.2926,-0.1986,-0.4858,55.75336498,48.74002659,1.24000001
1340,11.052352,0.8555,-1.446,-2.4007,55.75336498,48.74002659,1.24000001
1341,11.080427,0.8555,-1.446,-2.4007,55.75336498,48.74002659,1.24000001
1342,11.082968,0.8555,-1.446,-2.4007,55.75336498,48.74002659,1.24000001
1343,11.089144,0.8555,-1.446,-2.4007,55.75336498,48.74002659,1.24000001
1344,11.098524,0.8555,-1.446,-2.4007,55.75336498,48.74002659,1.24000001
1345,11.110906,0.8555,-1.446,-2.4007,55.75336498,48.74002659,1.24000001
1346,11.112417,0.8555,-1.446,-2.4007,55.75336498,48.74002659,1.24000001
1347,11.120164,0.8555,-1.446,-2.4007,55.75336498,48.74002659,1.24000001
1348,11.122303,0.7923,-1.7156,-1.5878,55.75336498,48.74002659,1.24000001
1349,11.123968,0.7923,-1.7156,-1.5878,55.75336498,48.74002659,1.24000001
1350,11.139524,0.7923,-1.7156,-1.5878,55.75336498,48.74002659,1.24000001
1351,11.159118,0.7923,-1.7156,-1.5878,55.75336498,48.74002659,1.24000001
1352,11.168786,0.7923,-1.7156,-1.5878,55.75336498,48.74002659,1.24000001
1353,11.171687,0.7923,-1.7156,-1.5878,55.75336498,48.74002659,1.24000001
1354,11.177194,0.7923,-1.7156,-1.5878,55.75336498,48.74002659,1.24000001
1355,11.179373,0.7923,-1.7156,-1.5878,55.75336498,48.74002659,1.24000001
1356,11.180267,0.7923,-1.7156,-1.5878,55.75336498,48.74002659,1.24000001
1357,11.18108,0.8116,0.0642,0.02,55.75336498,48.74002659,1.24000001
1358,11.212847,0.8116,0.0642,0.02,55.75336498,48.74002659,1.24000001
1359,11.223224,0.8116,0.0642,0.02,55.75336498,48.74002659,1.24000001
1360,11.229222,0.8116,0.0642,0.02,55.75336498,48.74002659,1.24000001
1361,11.238895,0.8116,0.0642,0.02,55.75336498,48.74002659,1.24000001
1362,11.243872,0.8116,0.0642,0.02,55.75336498,48.74002659,1.24000001
1363,11.244966,0.8116,0.0642,0.02,55.75336498,48.74002659,1.24000001
1364,11.25974,0.8116,0.0642,0.02,55.75336498,48.74002659,1.24000001
1365,11.261342,1.3806,0.7135,1.3427,55.75336498,48.74002659,1.24000001
1366,11.26225,1.3806,0.7135,1.3427,55.75336498,48.74002659,1.24000001
1367,11.280568,1.3806,0.7135,1.3427,55.75336498,48.74002659,1.24000001
1368,11.288829,1.3806,0.7135,1.3427,55.75336498,48.74002659,1.24000001
1369,11.30026,1.3806,0.7135,1.3427,55.75336498,48.74002659,1.24000001
1370,11.301976,1.3806,0.7135,1.3427,55.75336498,48.74002659,1.24000001
1371,11.310604,1.3806,0.7135,1.3427,55.75336498,48.74002659,1.24000001
1372,11.320284,1.3806,0.7135,1.3427,55.75336498,48.74002659,1.24000001
1373,11.322156,0.785,1.7101,2.3648,55.75336498,48.74002659,1.24000001
1374,11.3231,0.785,1.7101,2.3648,55.75336498,48.74002659,1.24000001
1375,11.341503,0.785,1.7101,2.3648,55.75336498,48.74002659,1.24000001
1376,11.368842,0.785,1.7101,2.3648,55.75336498,48.74002659,1.24000001
1377,11.370796,0.785,1.7101,2.3648,55.75336498,48.74002659,1.24000001
1378,11.377276,0.785,1.7101,2.3648,55.75336498,48.74002659,1.24000001
1379,11.380262,0.785,1.7101,2.3648,55.75336498,48.74002659,1.24000001
1380,11.400839,0.785,1.7101,2.3648,55.75336498,48.74002659,1.24000001
1381,11.402905,0.785,1.7101,2.3648,55.75336498,48.74002659,1.24000001
1382,11.404198,0.785,1.7101,2.3648,55.75336498,48.74002659,1.24000001
1383,11.405423,2.1142,1.7826,0.7636,55.75336498,48.74002659,1.24000001
1384,11.429444,2.1142,1.7826,0.7636,55.75336498,48.74002659,1.24000001
1385,11.444291,2.1142,1.7826,0.7636,55.75336498,48.74002659,1.24000001
1386,11.445653,2.1142,1.7826,0.7636,55.75336498,48.74002659,1.24000001
1387,11.450381,2.1142,1.7826,0.7636,55.75336498,48.74002659,1.24000001
1388,11.476277,2.1142,1.7826,0.7636,55.75336498,48.74002659,1.24000001
1389,11.478786,0.6696,-1.5939,-0.0794,55.75336498,48.74002659,1.24000001
1390,11.480383,0.6696,-1.5939,-0.0794,55.75336498,48.74002659,1.24000001
1391,11.481559,0.6696,-1.5939,-0.0794,55.75336498,48.74002659,1.24000001
1392,11.489905,0.6696,-1.5939,-0.0794,55.75336498,48.74002659,1.24000001
1393,11.510839,0.6696,-1.5939,-0.0794,55.75336498,48.74002659,1.24000001
1394,11.512342,0.6696,-1.5939,-0.0794,55.75336498,48.74002659,1.24000001
1395,11.513169,0.6696,-1.5939,-0.0794,55.75336498,48.74002659,1.24000001
1396,11.513988,0.6696,-1.5939,-0.0794,55.75336498,48.74002659,1.24000001
1397,11.531367,0.6696,-1.5939,-0.0794,55.75336498,48.74002659,1.24000001
1398,11.532706,0.1685,-1.9885,-2.1442,55.75336486,48.74004819,1.21000004
1399,11.533776,0.1685,-1.9885,-2.1442,55.75336486,48.74004819,1.21000004
1400,11.54621,0.1685,-1.9885,-2.1442,55.75336486,48.74004819,1.21000004
1401,11.568577,0.1685,-1.9885,-2.1442,55.75336486,48.74004819,1.21000004
1402,11.569991,0.1685,-1.9885,-2.1442,55.75336486,48.74004819,1.21000004
1403,11.57726,0.1685,-1.9885,-2.1442,55.75336486,48.74004819,1.21000004
1404,11.581173,0.1685,-1.9885,-2.1442,55.75336486,48.74004819,1.21000004
1405,11.582292,0.1685,-1.9885,-2.1442,55.75336486,48.74004819,1.21000004
1406,11.601416,0.1685,-1.9885,-2.1442,55.75336486,48.74004819,1.21000004
1407,11.603029,0.1685,-1.9885,-2.1442,55.75336486,48.74004819,1.21000004
1408,11.604137,0.4451,-1.3378,-1.4873,55.75336486,48.74004819,1.21000004
1409,11.629138,0.4451,-1.3378,-1.4873,55.75336486,48.74004819,1.21000004
1410,11.644331,0.4451,-1.3378,-1.4873,55.75336486,48.74004819,1.21000004
1411,11.645625,0.4451,-1.3378,-1.4873,55.75336486,48.74004819,1.21000004
1412,11.651323,0.4451,-1.3378,-1.4873,55.75336486,48.74004819,1.21000004
1413,11.652655,0.4451,-1.3378,-1.4873,55.75336486,48.74004819,1.21000004
1414,11.672046,0.4451,-1.3378,-1.4873,55.75336486,48.74004819,1.21000004
1415,11.674272,0.3434,0.9824,-0.4605,55.75336486,48.74004819,1.21000004
1416,11.675647,0.3434,0.9824,-0.4605,55.75336486,48.74004819,1.21000004
1417,11.68885,0.3434,0.9824,-0.4605,55.75336486,48.74004819,1.21000004
1418,11.711689,0.3434,0.9824,-0.4605,55.75336486,48.74004819,1.21000004
1419,11.713789,0.3434,0.9824,-0.4605,55.75336486,48.74004819,1.21000004
1420,11.72311,0.3434,0.9824,-0.4605,55.75336486,48.74004819,1.21000004
1421,11.725342,0.3434,0.9824,-0.4605,55.75336486,48.74004819,1.21000004
1422,11.726496,0.3434,0.9824,-0.4605,55.75336486,48.74004819,1.21000004
1423,11.742333,0.3434,0.9824,-0.4605,55.75336486,48.74004819,1.21000004
1424,11.744824,-0.1778,2.3895,1.7199,55.75336486,48.74004819,1.21000004
1425,11.745946,-0.1778,2.3895,1.7199,55.75336486,48.74004819,1.21000004
1426,11.768782,-0.1778,2.3895,1.7199,55.75336486,48.74004819,1.21000004
1427,11.770259,-0.1778,2.3895,1.7199,55.75336486,48.74004819,1.21000004
1428,11.777333,-0.1778,2.3895,1.7199,55.75336486,48.74004819,1.21000004
1429,11.801598,-0.1778,2.3895,1.7199,55.75336486,48.74004819,1.21000004
1430,11.803171,-0.1778,2.3895,1.7199,55.75336486,48.74004819,1.21000004
1431,11.813326,-0.1778,2.3895,1.7199,55.75336486,48.74004819,1.21000004
1432,11.815253,-0.1778,2.3895,1.7199,55.75336486,48.74004819,1.21000004
1433,11.816621,-0.2048,1.6184,1.615,55.75336486,48.74004819,1.21000004
1434,11.828979,-0.2048,1.6184,1.615,55.75336486,48.74004819,1.21000004
1435,11.843919,-0.2048,1.6184,1.615,55.75336486,48.74004819,1.21000004
1436,11.845628,-0.2048,1.6184,1.615,55.75336486,48.74004819,1.21000004
1437,11.873183,-0.2048,1.6184,1.615,55.75336486,48.74004819,1.21000004
1438,11.875538,-0.2048,1.6184,1.615,55.75336486,48.74004819,1.21000004
1439,11.879223,-0.2048,1.6184,1.615,55.75336486,48.74004819,1.21000004
1440,11.888869,-0.2048,1.6184,1.615,55.75336486,48.74004819,1.21000004
1441,11.892586,-0.2048,1.6184,1.615,55.75336486,48.74004819,1.21000004
1442,11.893962,-0.2048,1.6184,1.615,55.75336486,48.74004819,1.21000004
1443,11.895131,0.3546,0.8543,0.5452,55.75336486,48.74004819,1.21000004
1444,11.911379,0.3546,0.8543,0.5452,55.75336486,48.74004819,1.21000004
1445,11.932805,0.3546,0.8543,0.5452,55.75336486,48.74004819,1.21000004
1446,11.935021,0.3546,0.8543,0.5452,55.75336486,48.74004819,1.21000004
1447,11.93633,0.3546,0.8543,0.5452,55.75336486,48.74004819,1.21000004
1448,11.945919,0.3546,0.8543,0.5452,55.75336486,48.74004819,1.21000004
1449,11.96287,0.3546,0.8543,0.5452,55.75336486,48.74004819,1.21000004
1450,11.96447,0.3546,0.8543,0.5452,55.75336486,48.74004819,1.21000004
1451,11.965635,-0.9185,-0.6115,0.642,55.75336486,48.74004819,1.21000004
1452,11.969451,-0.9185,-0.6115,0.642,55.75336486,48.74004819,1.21000004
1453,11.977172,-0.9185,-0.6115,0.642,55.75336486,48.74004819,1.21000004
1454,12.01354,-0.9185,-0.6115,0.642,55.75336486,48.74004819,1.21000004
1455,12.018773,-0.9185,-0.6115,0.642,55.75336486,48.74004819,1.21000004
1456,12.022304,-0.9185,-0.6115,0.642,55.75336486,48.74004819,1.21000004
1457,12.029323,-0.9185,-0.6115,0.642,55.75336486,48.74004819,1.21000004
1458,12.036432,-0.5087,-1.2129,-1.9173,55.75336486,48.74004819,1.21000004
1459,12.040414,-0.5087,-1.2129,-1.9173,55.75336486,48.74004819,1.21000004
1460,12.043479,-0.5087,-1.2129,-1.9173,55.75336486,48.74004819,1.21000004
1461,12.0467,-0.5087,-1.2129,-1.9173,55.75336486,48.74004819,1.21000004
1462,12.057426,-0.5087,-1.2129,-1.9173,55.75336486,48.74004819,1.21000004
1463,12.07904,-0.5087,-1.2129,-1.9173,55.75336486,48.74004819,1.21000004
1464,12.084838,-0.5087,-1.2129,-1.9173,55.75336486,48.74004819,1.21000004
1465,12.089546,-0.5087,-1.2129,-1.9173,55.75336486,48.74004819,1.21000004
1466,12.09347,0.2203,-1.2749,-2.063,55.75336486,48.74004819,1.21000004
1467,12.096631,0.2203,-1.2749,-2.063,55.75336486,48.74004819,1.21000004
1468,12.099167,0.2203,-1.2749,-2.063,55.75336486,48.74004819,1.21000004
1469,12.111475,0.2203,-1.2749,-2.063,55.75336486,48.74004819,1.21000004
1470,12.134648,0.2203,-1.2749,-2.063,55.75336486,48.74004819,1.21000004
1471,12.140263,0.2203,-1.2749,-2.063,55.75336486,48.74004819,1.21000004
1472,12.149028,0.2203,-1.2749,-2.063,55.75336486,48.74004819,1.21000004
1473,12.153201,0.2203,-1.2749,-2.063,55.75336486,48.74004819,1.21000004
1474,12.166397,0.2203,-1.2749,-2.063,55.75336486,48.74004819,1.21000004
1475,12.171038,0.2203,-1.2749,-2.063,55.75336486,48.74004819,1.21000004
1476,12.173236,0.459,-0.0402,-0.6585,55.75336486,48.74004819,1.21000004
1477,12.174874,0.459,-0.0402,-0.6585,55.75336486,48.74004819,1.21000004
1478,12.177567,0.459,-0.0402,-0.6585,55.75336486,48.74004819,1.21000004
1479,12.214822,0.459,-0.0402,-0.6585,55.75336486,48.74004819,1.21000004
1480,12.222022,0.459,-0.0402,-0.6585,55.75336486,48.74004819,1.21000004
1481,12.226288,0.459,-0.0402,-0.6585,55.75336486,48.74004819,1.21000004
1482,12.230292,0.459,-0.0402,-0.6585,55.75336486,48.74004819,1.21000004
1483,12.235016,0.459,-0.0402,-0.6585,55.75336486,48.74004819,1.21000004
1484,12.239962,-0.5995,1.8964,1.4568,55.75336486,48.74004819,1.21000004
1485,12.242671,-0.5995,1.8964,1.4568,55.75336486,48.74004819,1.21000004
1486,12.245219,-0.5995,1.8964,1.4568,55.75336486,48.74004819,1.21000004
1487,12.280779,-0.5995,1.8964,1.4568,55.75336486,48.74004819,1.21000004
1488,12.285724,-0.5995,1.8964,1.4568,55.75336486,48.74004819,1.21000004
1489,12.289907,-0.5995,1.8964,1.4568,55.75336486,48.74004819,1.21000004
1490,12.293881,-0.5995,1.8964,1.4568,55.75336486,48.74004819,1.21000004
1491,12.312017,-0.5995,1.8964,1.4568,55.75336486,48.74004819,1.21000004
1492,12.314955,-0.5995,1.8964,1.4568,55.75336486,48.74004819,1.21000004
1493,12.317353,-0.5995,1.8964,1.4568,55.75336486,48.74004819,1.21000004
1494,12.319627,-0.5995,1.8964,1.4568,55.75336486,48.74004819,1.21000004
1495,12.32198,1.0049,2.0233,2.8216,55.75336486,48.74004819,1.21000004
1496,12.335974,1.0049,2.0233,2.8216,55.75336486,48.74004819,1.21000004
1497,12.346397,1.0049,2.0233,2.8216,55.75336486,48.74004819,1.21000004
1498,12.367281,1.0049,2.0233,2.8216,55.75336486,48.74004819,1.21000004
1499,12.371877,1.0049,2.0233,2.8216,55.75336486,48.74004819,1.21000004
1500,12.373967,1.0049,2.0233,2.8216,55.75336486,48.74004819,1.21000004
1501,12.377649,1.0049,2.0233,2.8216,55.75336486,48.74004819,1.21000004
1502,12.38561,1.0049,2.0233,2.8216,55.75336486,48.74004819,1.21000004
1503,12.389366,0.5244,-1.5723,2.1964,55.75336486,48.74004819,1.21000004
1504,12.392679,0.5244,-1.5723,2.1964,55.75336486,48.74004819,1.21000004
1505,12.412714,0.5244,-1.5723,2.1964,55.75336486,48.74004819,1.21000004
1506,12.425508,0.5244,-1.5723,2.1964,55.75336486,48.74004819,1.21000004
1507,12.429595,0.5244,-1.5723,2.1964,55.75336486,48.74004819,1.21000004
1508,12.43318,0.5244,-1.5723,2.1964,55.75336486,48.74004819,1.21000004
1509,12.44613,0.5244,-1.5723,2.1964,55.75336486,48.74004819,1.21000004
1510,12.450739,-0.2484,-1.6885,-0.9455,55.75336486,48.74004819,1.21000004
1511,12.453547,-0.2484,-1.6885,-0.9455,55.75336486,48.74004819,1.21000004
1512,12.45586,-0.2484,-1.6885,-0.9455,55.75336486,48.74004819,1.21000004
1513,12.474497,-0.2484,-1.6885,-0.9455,55.75336486,48.74004819,1.21000004
1514,12.489561,-0.2484,-1.6885,-0.9455,55.75336486,48.74004819,1.21000004
1515,12.494903,-0.2484,-1.6885,-0.9455,55.75336486,48.74004819,1.21000004
1516,12.510609,-0.2484,-1.6885,-0.9455,55.75336486,48.74004819,1.21000004
1517,12.514262,-0.2484,-1.6885,-0.9455,55.75336486,48.74004819,1.21000004
1518,12.516446,-0.2484,-1.6885,-0.9455,55.75336486,48.74004819,1.21000004
1519,12.518875,-0.4198,-1.8271,-2.0447,55.75336486,48.74004819,1.21000004
1520,12.522323,-0.4198,-1.8271,-2.0447,55.75336486,48.74004819,1.21000004
1521,12.536532,-0.4198,-1.8271,-2.0447,55.75336486,48.74004819,1.21000004
1522,12.547156,-0.4198,-1.8271,-2.0447,55.75336486,48.74004819,1.21000004
1523,12.565556,-0.4198,-1.8271,-2.0447,55.75336486,48.74004819,1.21000004
1524,12.570992,-0.4198,-1.8271,-2.0447,55.75335505,48.74007019,1.45000005
1525,12.574063,-0.4198,-1.8271,-2.0447,55.75335505,48.74007019,1.45000005
1526,12.577988,-0.4198,-1.8271,-2.0447,55.75335505,48.74007019,1.45000005
1527,12.589995,-0.4198,-1.8271,-2.0447,55.75335505,48.74007019,1.45000005
1528,12.594317,-0.4198,-1.8271,-2.0447,55.75335505,48.74007019,1.45000005
1529,12.597563,-0.3363,-0.4038,-1.1184,55.75335505,48.74007019,1.45000005
1530,12.613231,-0.3363,-0.4038,-1.1184,55.75335505,48.74007019,1.45000005
1531,12.630112,-0.3363,-0.4038,-1.1184,55.75335505,48.74007019,1.45000005
1532,12.634618,-0.3363,-0.4038,-1.1184,55.75335505,48.74007019,1.45000005
1533,12.645098,-0.3363,-0.4038,-1.1184,55.75335505,48.74007019,1.45000005
1534,12.650045,-0.3363,-0.4038,-1.1184,55.75335505,48.74007019,1.45000005
1535,12.66638,-0.3363,-0.4038,-1.1184,55.75335505,48.74007019,1.45000005
1536,12.671043,-0.3363,-0.4038,-1.1184,55.75335505,48.74007019,1.45000005
1537,12.674323,-0.3363,-0.4038,-1.1184,55.75335505,48.74007019,1.45000005
1538,12.677722,-0.7097,0.6517,1.3255,55.75335505,48.74007019,1.45000005
1539,12.689899,-0.7097,0.6517,1.3255,55.75335505,48.74007019,1.45000005
1540,12.711259,-0.7097,0.6517,1.3255,55.75335505,48.74007019,1.45000005
1541,12.717244,-0.7097,0.6517,1.3255,55.75335505,48.74007019,1.45000005
1542,12.719481,-0.7097,0.6517,1.3255,55.75335505,48.74007019,1.45000005
1543,12.726817,-0.7097,0.6517,1.3255,55.75335505,48.74007019,1.45000005
1544,12.737001,-0.7097,0.6517,1.3255,55.75335505,48.74007019,1.45000005
1545,12.740558,-0.7097,0.6517,1.3255,55.75335505,48.74007019,1.45000005
1546,12.743233,-1.3685,1.5865,2.1466,55.75335505,48.74007019,1.45000005
1547,12.746321,-1.3685,1.5865,2.1466,55.75335505,48.74007019,1.45000005
1548,12.769257,-1.3685,1.5865,2.1466,55.75335505,48.74007019,1.45000005
1549,12.774219,-1.3685,1.5865,2.1466,55.75335505,48.74007019,1.45000005
1550,12.778164,-1.3685,1.5865,2.1466,55.75335505,48.74007019,1.45000005
1551,12.790497,-1.3685,1.5865,2.1466,55.75335505,48.74007019,1.45000005
1552,12.80704,-1.3685,1.5865,2.1466,55.75335505,48.74007019,1.45000005
1553,12.811902,0.3853,1.2169,0.2564,55.75335505,48.74007019,1.45000005
1554,12.815905,0.3853,1.2169,0.2564,55.75335505,48.74007019,1.45000005
1555,12.8195,0.3853,1.2169,0.2564,55.75335505,48.74007019,1.45000005
1556,12.829756,0.3853,1.2169,0.2564,55.75335505,48.74007019,1.45000005
1557,12.834195,0.3853,1.2169,0.2564,55.75335505,48.74007019,1.45000005
1558,12.84484,0.3853,1.2169,0.2564,55.75335505,48.74007019,1.45000005
1559,12.848797,0.3853,1.2169,0.2564,55.75335505,48.74007019,1.45000005
1560,12.852787,0.3853,1.2169,0.2564,55.75335505,48.74007019,1.45000005
1561,12.867398,0.3853,1.2169,0.2564,55.75335505,48.74007019,1.45000005
1562,12.872073,0.3853,1.2169,0.2564,55.75335505,48.74007019,1.45000005
1563,12.874758,-1.8596,-0.2911,-0.5172,55.75335505,48.74007019,1.45000005
1564,12.889569,-1.8596,-0.2911,-0.5172,55.75335505,48.74007019,1.45000005
1565,12.911098,-1.8596,-0.2911,-0.5172,55.75335505,48.74007019,1.45000005
1566,12.916628,-1.8596,-0.2911,-0.5172,55.75335505,48.74007019,1.45000005
1567,12.918816,-1.8596,-0.2911,-0.5172,55.75335505,48.74007019,1.45000005
1568,12.938182,-1.2278,-0.3478,-3.2576,55.75335505,48.74007019,1.45000005
1569,12.944742,-1.2278,-0.3478,-3.2576,55.75335505,48.74007019,1.45000005
1570,12.948337,-1.2278,-0.3478,-3.2576,55.75335505,48.74007019,1.45000005
1571,12.951394,-1.2278,-0.3478,-3.2576,55.75335505,48.74007019,1.45000005
1572,12.954614,-1.2278,-0.3478,-3.2576,55.75335505,48.74007019,1.45000005
1573,12.970705,-1.2278,-0.3478,-3.2576,55.75335505,48.74007019,1.45000005
1574,12.976531,-1.2278,-0.3478,-3.2576,55.75335505,48.74007019,1.45000005
1575,12.979313,-1.2278,-0.3478,-3.2576,55.75335505,48.74007019,1.45000005
1576,12.989511,-1.2278,-0.3478,-3.2576,55.75335505,48.74007019,1.45000005
1577,12.992966,-1.2278,-0.3478,-3.2576,55.75335505,48.74007019,1.45000005
1578,13.007422,-1.2278,-0.3478,-3.2576,55.75335505,48.74007019,1.45000005
1579,13.012818,-1.2278,-0.3478,-3.2576,55.75335505,48.74007019,1.45000005
1580,13.015473,-0.4494,-2.1521,-1.7479,55.75335505,48.74007019,1.45000005
1581,13.029594,-0.4494,-2.1521,-1.7479,55.75335505,48.74007019,1.45000005
1582,13.033436,-0.4494,-2.1521,-1.7479,55.75335505,48.74007019,1.45000005
1583,13.044649,-0.4494,-2.1521,-1.7479,55.75335505,48.74007019,1.45000005
1584,13.055445,-0.4494,-2.1521,-1.7479,55.75335505,48.74007019,1.45000005
1585,13.06698,-0.4494,-2.1521,-1.7479,55.75335505,48.74007019,1.45000005
1586,13.070155,-0.4494,-2.1521,-1.7479,55.75335505,48.74007019,1.45000005
1587,13.080998,0.1118,-0.7469,-0.8955,55.75335505,48.74007019,1.45000005
1588,13.085021,0.1118,-0.7469,-0.8955,55.75335505,48.74007019,1.45000005
1589,13.08935,0.1118,-0.7469,-0.8955,55.75335505,48.74007019,1.45000005
1590,13.111173,0.1118,-0.7469,-0.8955,55.75335505,48.74007019,1.45000005
1591,13.115205,0.1118,-0.7469,-0.8955,55.75335505,48.74007019,1.45000005
1592,13.138017,0.1118,-0.7469,-0.8955,55.75335505,48.74007019,1.45000005
1593,13.144529,0.1118,-0.7469,-0.8955,55.75335505,48.74007019,1.45000005
1594,13.148159,0.1118,-0.7469,-0.8955,55.75335505,48.74007019,1.45000005
1595,13.158476,0.1118,-0.7469,-0.8955,55.75335505,48.74007019,1.45000005
1596,13.165381,-0.1644,1.0425,0.79,55.75335505,48.74007019,1.45000005
1597,13.168375,-0.1644,1.0425,0.79,55.75335505,48.74007019,1.45000005
1598,13.171172,-0.1644,1.0425,0.79,55.75335505,48.74007019,1.45000005
1599,13.178584,-0.1644,1.0425,0.79,55.75335505,48.74007019,1.45000005
1600,13.197826,-0.1644,1.0425,0.79,55.75335505,48.74007019,1.45000005
1601,13.201367,-0.1644,1.0425,0.79,55.75335505,48.74007019,1.45000005
1602,13.202991,-0.1644,1.0425,0.79,55.75335505,48.74007019,1.45000005
1603,13.214787,-0.1644,1.0425,0.79,55.75335505,48.74007019,1.45000005
1604,13.223477,-0.1644,1.0425,0.79,55.75335505,48.74007019,1.45000005
1605,13.226015,-0.3468,2.682,1.7648,55.75335505,48.74007019,1.45000005
1606,13.229344,-0.3468,2.682,1.7648,55.75335505,48.74007019,1.45000005
1607,13.244423,-0.3468,2.682,1.7648,55.75335505,48.74007019,1.45000005
1608,13.249134,-0.3468,2.682,1.7648,55.75335505,48.74007019,1.45000005
1609,13.279411,-0.3468,2.682,1.7648,55.75335505,48.74007019,1.45000005
1610,13.284379,-0.3468,2.682,1.7648,55.75335505,48.74007019,1.45000005
1611,13.287962,-0.3468,2.682,1.7648,55.75335505,48.74007019,1.45000005
1612,13.291385,-0.3468,2.682,1.7648,55.75335505,48.74007019,1.45000005
1613,13.302465,-0.3468,2.682,1.7648,55.75335505,48.74007019,1.45000005
1614,13.307026,-0.3615,0.7341,1.3317,55.75335505,48.74007019,1.45000005
1615,13.309864,-0.3615,0.7341,1.3317,55.75335505,48.74007019,1.45000005
1616,13.312575,-0.3615,0.7341,1.3317,55.75335505,48.74007019,1.45000005
1617,13.339396,-0.3615,0.7341,1.3317,55.75335505,48.74007019,1.45000005
1618,13.345675,-0.3615,0.7341,1.3317,55.75335505,48.74007019,1.45000005
1619,13.348747,-0.3615,0.7341,1.3317,55.75335505,48.74007019,1.45000005
1620,13.359075,-1.5333,-0.4823,0.5337,55.75335505,48.74007019,1.45000005
1621,13.363858,-1.5333,-0.4823,0.5337,55.75335505,48.74007019,1.45000005
1622,13.367553,-1.5333,-0.4823,0.5337,55.75335505,48.74007019,1.45000005
1623,13.3707,-1.5333,-0.4823,0.5337,55.75335505,48.74007019,1.45000005
1624,13.379051,-1.5333,-0.4823,0.5337,55.75335505,48.74007019,1.45000005
1625,13.41349,-1.5333,-0.4823,0.5337,55.75335505,48.74007019,1.45000005
1626,13.418315,-1.5333,-0.4823,0.5337,55.75335505,48.74007019,1.45000005
1627,13.421105,-1.5333,-0.4823,0.5337,55.75335505,48.74007019,1.45000005
1628,13.423814,-1.5333,-0.4823,0.5337,55.75335505,48.74007019,1.45000005
1629,13.435775,-1.5333,-0.4823,0.5337,55.75335505,48.74007019,1.45000005
1630,13.440877,-1.5302,-0.8572,-2.8796,55.75335505,48.74007019,1.45000005
1631,13.445642,-1.5302,-0.8572,-2.8796,55.75335505,48.74007019,1.45000005
1632,13.449032,-1.5302,-0.8572,-2.8796,55.75335505,48.74007019,1.45000005
1633,13.45214,-1.5302,-0.8572,-2.8796,55.75335505,48.74007019,1.45000005
1634,13.474718,-1.5302,-0.8572,-2.8796,55.75335505,48.74007019,1.45000005
1635,13.476552,-1.5302,-0.8572,-2.8796,55.75335505,48.74007019,1.45000005
1636,13.479946,-1.5302,-0.8572,-2.8796,55.75335505,48.74007019,1.45000005
1637,13.488966,-1.5302,-0.8572,-2.8796,55.75335505,48.74007019,1.45000005
1638,13.499137,-1.5302,-0.8572,-2.8796,55.75335505,48.74007019,1.45000005
1639,13.501853,-1.5302,-0.8572,-2.8796,55.75335505,48.74007019,1.45000005
1640,13.503947,-0.7136,-1.4502,-2.0223,55.75335505,48.74007019,1.45000005
1641,13.511167,-0.7136,-1.4502,-2.0223,55.75335505,48.74007019,1.45000005
1642,13.541444,-0.7136,-1.4502,-2.0223,55.75335505,48.74007019,1.45000005
1643,13.542992,-0.7136,-1.4502,-2.0223,55.75334253,48.7400863,1.15999997
1644,13.559542,-0.7136,-1.4502,-2.0223,55.75334253,48.7400863,1.15999997
1645,13.570496,-0.7136,-1.4502,-2.0223,55.75334253,48.7400863,1.15999997
1646,13.573668,-0.7136,-1.4502,-2.0223,55.75334253,48.7400863,1.15999997
1647,13.578547,-0.7136,-1.4502,-2.0223,55.75334253,48.7400863,1.15999997
1648,13.580704,-0.7136,-1.4502,-2.0223,55.75334253,48.7400863,1.15999997
1649,13.583527,-0.7345,-0.7031,-0.3684,55.75334253,48.7400863,1.15999997
1650,13.585937,-0.7345,-0.7031,-0.3684,55.75334253,48.7400863,1.15999997
1651,13.614834,-0.7345,-0.7031,-0.3684,55.75334253,48.7400863,1.15999997
1652,13.618653,-0.7345,-0.7031,-0.3684,55.75334253,48.7400863,1.15999997
1653,13.634174,-0.7345,-0.7031,-0.3684,55.75334253,48.7400863,1.15999997
1654,13.637938,-0.7345,-0.7031,-0.3684,55.75334253,48.7400863,1.15999997
1655,13.640075,-0.7345,-0.7031,-0.3684,55.75334253,48.7400863,1.15999997
1656,13.645411,-0.7345,-0.7031,-0.3684,55.75334253,48.7400863,1.15999997
1657,13.65037,-0.7345,-0.7031,-0.3684,55.75334253,48.7400863,1.15999997
1658,13.653913,-1.0545,1.0401,1.2895,55.75334253,48.7400863,1.15999997
1659,13.656998,-1.0545,1.0401,1.2895,55.75334253,48.7400863,1.15999997
1660,13.68074,-1.0545,1.0401,1.2895,55.75334253,48.7400863,1.15999997
1661,13.689962,-1.0545,1.0401,1.2895,55.75334253,48.7400863,1.15999997
1662,13.700363,-1.0545,1.0401,1.2895,55.75334253,48.7400863,1.15999997
1663,13.71179,-1.0545,1.0401,1.2895,55.75334253,48.7400863,1.15999997
1664,13.715217,-1.0545,1.0401,1.2895,55.75334253,48.7400863,1.15999997
1665,13.72632,-1.0545,1.0401,1.2895,55.75334253,48.7400863,1.15999997
1666,13.732605,-1.3674,2.2016,0.7728,55.75334253,48.7400863,1.15999997
1667,13.736778,-1.3674,2.2016,0.7728,55.75334253,48.7400863,1.15999997
1668,13.742485,-1.3674,2.2016,0.7728,55.75334253,48.7400863,1.15999997
1669,13.760572,-1.3674,2.2016,0.7728,55.75334253,48.7400863,1.15999997
1670,13.765448,-1.3674,2.2016,0.7728,55.75334253,48.7400863,1.15999997
1671,13.772448,-1.3674,2.2016,0.7728,55.75334253,48.7400863,1.15999997
1672,13.777511,-1.3674,2.2016,0.7728,55.75334253,48.7400863,1.15999997
1673,13.780392,-1.3674,2.2016,0.7728,55.75334253,48.7400863,1.15999997
1674,13.782672,-0.9827,0.6416,0.6398,55.75334253,48.7400863,1.15999997
1675,13.784767,-0.9827,0.6416,0.6398,55.75334253,48.7400863,1.15999997
1676,13.814116,-0.9827,0.6416,0.6398,55.75334253,48.7400863,1.15999997
1677,13.820517,-0.9827,0.6416,0.6398,55.75334253,48.7400863,1.15999997
1678,13.835414,-0.9827,0.6416,0.6398,55.75334253,48.7400863,1.15999997
1679,13.84168,-0.9827,0.6416,0.6398,55.75334253,48.7400863,1.15999997
1680,13.846618,-0.9827,0.6416,0.6398,55.75334253,48.7400863,1.15999997
1681,13.850794,-0.9827,0.6416,0.6398,55.75334253,48.7400863,1.15999997
1682,13.854679,-0.9827,0.6416,0.6398,55.75334253,48.7400863,1.15999997
1683,13.858723,-2.2122,0.2716,0.0416,55.75334253,48.7400863,1.15999997
1684,13.862217,-2.2122,0.2716,0.0416,55.75334253,48.7400863,1.15999997
1685,13.879816,-2.2122,0.2716,0.0416,55.75334253,48.7400863,1.15999997
1686,13.89027,-2.2122,0.2716,0.0416,55.75334253,48.7400863,1.15999997
1687,13.910855,-2.2122,0.2716,0.0416,55.75334253,48.7400863,1.15999997
1688,13.916145,-2.2122,0.2716,0.0416,55.75334253,48.7400863,1.15999997
1689,13.919419,-2.2122,0.2716,0.0416,55.75334253,48.7400863,1.15999997
1690,13.932539,-2.2122,0.2716,0.0416,55.75334253,48.7400863,1.15999997
1691,13.937964,-1.0166,-1.3,-2.0061,55.75334253,48.7400863,1.15999997
1692,13.941651,-1.0166,-1.3,-2.0061,55.75334253,48.7400863,1.15999997
1693,13.945198,-1.0166,-1.3,-2.0061,55.75334253,48.7400863,1.15999997
1694,13.969615,-1.0166,-1.3,-2.0061,55.75334253,48.7400863,1.15999997
1695,13.974418,-1.0166,-1.3,-2.0061,55.75334253,48.7400863,1.15999997
1696,13.97701,-1.0166,-1.3,-2.0061,55.75334253,48.7400863,1.15999997
1697,13.979458,-1.0166,-1.3,-2.0061,55.75334253,48.7400863,1.15999997
1698,13.982279,-1.0166,-1.3,-2.0061,55.75334253,48.7400863,1.15999997
1699,13.992129,-1.0166,-1.3,-2.0061,55.75334253,48.7400863,1.15999997
1700,13.995949,0.173,-1.8306,-1.8527,55.75334253,48.7400863,1.15999997
1701,13.998275,0.173,-1.8306,-1.8527,55.75334253,48.7400863,1.15999997
1702,14.012995,0.173,-1.8306,-1.8527,55.75334253,48.7400863,1.15999997
1703,14.030475,0.173,-1.8306,-1.8527,55.75334253,48.7400863,1.15999997
1704,14.044613,0.173,-1.8306,-1.8527,55.75334253,48.7400863,1.15999997
1705,14.048281,0.173,-1.8306,-1.8527,55.75334253,48.7400863,1.15999997
1706,14.050464,0.173,-1.8306,-1.8527,55.75334253,48.7400863,1.15999997
1707,14.053743,0.173,-1.8306,-1.8527,55.75334253,48.7400863,1.15999997
1708,14.07288,0.173,-1.8306,-1.8527,55.75334253,48.7400863,1.15999997
1709,14.077738,0.5212,0.1195,-0.6123,55.75334253,48.7400863,1.15999997
1710,14.080591,0.5212,0.1195,-0.6123,55.75334253,48.7400863,1.15999997
1711,14.089416,0.5212,0.1195,-0.6123,55.75334253,48.7400863,1.15999997
1712,14.112559,0.5212,0.1195,-0.6123,55.75334253,48.7400863,1.15999997
1713,14.118201,0.5212,0.1195,-0.6123,55.75334253,48.7400863,1.15999997
1714,14.121579,0.5212,0.1195,-0.6123,55.75334253,48.7400863,1.15999997
1715,14.125524,0.5212,0.1195,-0.6123,55.75334253,48.7400863,1.15999997
1716,14.133549,0.5212,0.1195,-0.6123,55.75334253,48.7400863,1.15999997
1717,14.13867,0.6689,2.8373,1.5916,55.75334253,48.7400863,1.15999997
1718,14.142553,0.6689,2.8373,1.5916,55.75334253,48.7400863,1.15999997
1719,14.169908,0.6689,2.8373,1.5916,55.75334253,48.7400863,1.15999997
1720,14.176338,0.6689,2.8373,1.5916,55.75334253,48.7400863,1.15999997
1721,14.179765,0.6689,2.8373,1.5916,55.75334253,48.7400863,1.15999997
1722,14.182967,0.6689,2.8373,1.5916,55.75334253,48.7400863,1.15999997
1723,14.186324,0.6689,2.8373,1.5916,55.75334253,48.7400863,1.15999997
1724,14.202867,0.6689,2.8373,1.5916,55.75334253,48.7400863,1.15999997
1725,14.207777,-0.5166,0.8656,3.0205,55.75334253,48.7400863,1.15999997
1726,14.210786,-0.5166,0.8656,3.0205,55.75334253,48.7400863,1.15999997
1727,14.214863,-0.5166,0.8656,3.0205,55.75334253,48.7400863,1.15999997
1728,14.230429,-0.5166,0.8656,3.0205,55.75334253,48.7400863,1.15999997
1729,14.244658,-0.5166,0.8656,3.0205,55.75334253,48.7400863,1.15999997
1730,14.24936,-0.5166,0.8656,3.0205,55.75334253,48.7400863,1.15999997
1731,14.261827,-0.5166,0.8656,3.0205,55.75334253,48.7400863,1.15999997
1732,14.280294,-0.5166,0.8656,3.0205,55.75334253,48.7400863,1.15999997
1733,14.285452,-1.194,-0.1172,1.3862,55.75334253,48.7400863,1.15999997
1734,14.287468,-1.194,-0.1172,1.3862,55.75334253,48.7400863,1.15999997
1735,14.289606,-1.194,-0.1172,1.3862,55.75334253,48.7400863,1.15999997
1736,14.291696,-1.194,-0.1172,1.3862,55.75334253,48.7400863,1.15999997
